Timestamp (us),Gyroscope X (deg/s),Gyroscope Y (deg/s),Gyroscope Z (deg/s),Accelerometer X (g),Accelerometer Y (g),Accelerometer Z (g)
318292009,0.002200,0.406000,0.148100,-1.012700,-0.012400,0.032400
318312016,-0.006500,-0.034100,0.050900,-1.015700,-0.012000,0.034400
318333961,0.011000,-0.191300,0.059300,-1.012700,-0.013700,0.033900
318352012,0.010900,0.011100,0.050200,-1.019100,-0.013700,0.033700
318409519,-0.006600,0.221000,0.076200,-1.013500,-0.015600,0.034100
318429014,0.054700,0.132100,0.136900,-1.015900,-0.015600,0.031200
318478406,0.010600,0.122600,0.066100,-1.013000,-0.014400,0.036300
318547931,-0.129500,-0.219500,0.004400,-1.013200,-0.013400,0.033700
318567019,-0.032400,-0.183100,-0.153100,-1.010300,-0.016800,0.032000
318587032,-0.023500,-0.286900,-0.125900,-1.015900,-0.014900,0.032200
318607024,-0.014600,-0.206400,-0.081400,-1.014700,-0.010700,0.032700
318627020,-0.014500,-0.240100,-0.063400,-1.014700,-0.017100,0.036100
318647032,-0.005600,-0.177300,-0.071700,-1.013200,-0.016600,0.034600
318667029,0.020600,0.138800,0.103700,-1.014200,-0.015100,0.034600
318687028,-0.005700,0.190400,0.085600,-1.015200,-0.013900,0.032400
318770727,-0.329400,-0.318300,-0.089900,-1.014400,-0.014100,0.031200
318790016,-0.056100,-0.307500,-0.089400,-1.012000,-0.015100,0.032900
318810013,-0.055800,0.236900,0.086200,-1.014200,-0.014600,0.036300
318830015,-0.002900,0.471700,0.208100,-1.011300,-0.014600,0.034400
318850018,0.005800,0.285000,0.198100,-1.015900,-0.015400,0.032700
318870027,-0.116700,-0.180600,0.091800,-1.012000,-0.015100,0.030000
318890034,-0.072200,-0.223200,0.003800,-1.016600,-0.015400,0.032400
318910022,-0.001800,-0.020500,-0.075000,-1.013200,-0.014900,0.037600
318930009,0.042000,0.145800,0.118000,-1.012700,-0.013400,0.037100
318950028,0.041700,0.153700,0.117200,-1.013500,-0.012200,0.033400
318970033,-0.019800,-0.188500,-0.032300,-1.016900,-0.013900,0.034400
318990018,0.006600,-0.213600,-0.110800,-1.013000,-0.016100,0.035400
319010011,-0.002200,-0.151000,0.091100,-1.014900,-0.012900,0.034600
319030028,0.024100,-0.036300,0.029300,-1.014400,-0.013200,0.038100
319050014,-0.011100,0.025200,-0.110900,-1.016400,-0.011700,0.033900
319115970,-0.002300,-0.167500,0.047300,-1.014900,-0.016100,0.032400
319135010,-0.037200,-0.000200,-0.031700,-1.012500,-0.014600,0.035400
319185102,-0.054500,0.341100,0.169700,-1.015400,-0.011700,0.035900
319205022,0.077100,-0.002300,0.089900,-1.011800,-0.013200,0.032000
319225034,0.006600,-0.562300,-0.173200,-1.016600,-0.014900,0.032400
319245026,-0.072200,-0.515000,-0.277100,-1.015900,-0.013200,0.038100
319265018,-0.010500,-0.153100,-0.109100,-1.013200,-0.015600,0.035600
319285054,-0.010400,0.355400,0.145400,-1.013000,-0.016800,0.036100
319305026,0.068400,0.256900,0.240700,-1.013500,-0.016300,0.033700
319325129,0.041700,-0.112200,0.099200,-1.014000,-0.012900,0.034900
319345018,-0.072300,-0.137700,-0.041400,-1.015200,-0.015400,0.034400
319365483,-0.089300,-0.250600,-0.224900,-1.014900,-0.011700,0.036800
319385024,-0.001300,0.197200,-0.066000,-1.013000,-0.016100,0.036300
319405012,0.033700,0.423500,0.258100,-1.015400,-0.016800,0.033900
319463387,-0.089000,-0.139200,0.002800,-1.014200,-0.014100,0.034900
319482013,-0.035900,-0.042100,-0.006000,-1.013200,-0.016100,0.035400
319502029,0.034300,-0.199300,0.011500,-1.011500,-0.013200,0.034600
319534095,0.016600,0.423200,0.177700,-1.013200,-0.015400,0.034100
319607609,0.007700,-0.340700,-0.164600,-1.014700,-0.014600,0.037800
319627035,-0.018600,0.326400,0.107600,-1.011800,-0.012200,0.034400
319647035,-0.027200,0.245600,0.133200,-1.012700,-0.013900,0.034600
319667034,-0.079500,-0.158400,0.018600,-1.013200,-0.013900,0.033700
319687061,-0.009000,-0.323700,-0.130200,-1.012500,-0.013700,0.034100
319707199,-0.052700,-0.155400,-0.094400,-1.014200,-0.016600,0.037300
319727036,-0.061100,0.046800,0.019900,-1.011000,-0.017100,0.035400
319747007,-0.025800,-0.041000,0.028500,-1.014000,-0.015600,0.036100
319816166,-0.016800,-0.049500,-0.024100,-1.013500,-0.014100,0.037600
319835017,0.018300,0.397100,0.142300,-1.011800,-0.015900,0.034600
319855026,0.009400,0.307100,0.115100,-1.014200,-0.015100,0.032900
319875017,0.000600,-0.211100,-0.043100,-1.014400,-0.013400,0.035600
319895020,-0.016900,-0.034700,-0.051600,-1.014000,-0.014100,0.035400
319915178,0.018200,-0.104500,-0.138800,-1.012700,-0.013200,0.034400
319935028,-0.025700,-0.602600,-0.295400,-1.013000,-0.017100,0.034100
319955575,0.018200,-0.432600,-0.241000,-1.014900,-0.016100,0.038300
320023481,-0.051900,-0.202400,-0.038300,-1.014000,-0.012200,0.034400
320043034,-0.016600,-0.061100,-0.073000,-1.015700,-0.015400,0.036100
320065790,0.001000,0.289300,0.032400,-1.010800,-0.014400,0.036100
320085020,0.071000,0.226200,0.137200,-1.016600,-0.014100,0.035900
320105011,-0.016900,-0.151400,0.013900,-1.013200,-0.016600,0.035900
320125013,0.062000,0.007000,0.127500,-1.012500,-0.015100,0.036100
320145029,0.000300,0.033200,0.074200,-1.015200,-0.014600,0.033200
320165033,0.061600,0.348000,0.126300,-1.013500,-0.013400,0.036300
320185030,0.017400,-0.135400,-0.075800,-1.013500,-0.013900,0.033700
320205014,0.008600,-0.292100,-0.101600,-1.013700,-0.015900,0.033900
320225330,0.069800,-0.176500,-0.030900,-1.012000,-0.012000,0.032700
320245033,0.016800,0.358400,0.205500,-1.014000,-0.013400,0.034600
320265010,0.016700,0.364900,0.134200,-1.014400,-0.015900,0.033700
320285017,0.007900,-0.048700,0.098400,-1.014000,-0.014900,0.035900
320305016,0.060300,-0.179600,-0.059700,-1.011500,-0.014100,0.036100
320325091,0.007400,-0.353500,-0.173100,-1.013200,-0.014900,0.036100
320345033,-0.001400,0.191200,0.064200,-1.011800,-0.016300,0.036800
320365015,0.007400,0.207500,0.133800,-1.014000,-0.014900,0.034900
320385012,0.094800,0.215000,0.220500,-1.011000,-0.014400,0.035400
320456680,0.024300,-0.188900,-0.060900,-1.015900,-0.013700,0.032400
320475095,-0.028400,-0.292700,-0.078000,-1.012700,-0.017100,0.035900
320495021,0.041800,0.207900,0.158700,-1.011500,-0.013900,0.036600
320529402,-0.028500,0.136600,-0.026000,-1.016400,-0.012700,0.033900
320549013,0.024200,-0.109300,0.035400,-1.015200,-0.013400,0.033700
320569025,0.059000,-0.274800,0.052700,-1.012700,-0.015400,0.033700
320589019,0.041200,0.068100,0.148600,-1.014000,-0.014900,0.034600
320609017,-0.055300,0.076500,-0.088600,-1.010500,-0.012700,0.034900
320629030,-0.028700,0.137200,-0.061800,-1.013200,-0.014600,0.037600
320665497,0.032700,-0.414900,-0.035100,-1.012500,-0.014600,0.032900
320735124,-0.011300,0.699000,0.332600,-1.012300,-0.015100,0.034900
320755035,0.006300,0.510800,0.330500,-1.012500,-0.013700,0.033400
320775023,0.058800,-0.113600,0.083400,-1.017100,-0.013400,0.032900
320795165,-0.002900,-0.244200,0.012900,-1.013700,-0.014400,0.034600
320815028,-0.029100,0.509900,0.205300,-1.016400,-0.014600,0.036100
320835015,-0.081400,0.357900,0.160300,-1.014200,-0.013700,0.033400
320855012,-0.054600,-0.090600,-0.085700,-1.015400,-0.013900,0.034600
320875475,0.015700,-0.308800,-0.076500,-1.014900,-0.014400,0.031500
320895014,0.024400,-0.315600,-0.119700,-1.013000,-0.014900,0.035900
320962046,0.024200,0.106400,0.091000,-1.014900,-0.011200,0.033400
320982020,-0.063500,-0.559300,-0.364500,-1.013700,-0.015600,0.034900
321002034,0.068200,-0.345700,-0.204800,-1.011300,-0.014100,0.036300
321022010,-0.046000,0.050200,0.041500,-1.011300,-0.017100,0.034100
321042028,0.129300,0.513600,0.505000,-1.014000,-0.015100,0.035600
321062035,0.006000,-0.058400,0.248100,-1.017600,-0.012700,0.034900
321082011,-0.081500,-0.154200,-0.094700,-1.013000,-0.014600,0.032900
321102031,-0.116000,-0.354500,-0.470400,-1.011300,-0.017600,0.035600
321169186,0.015900,0.129000,0.083800,-1.015200,-0.013400,0.034100
321188010,0.015800,-0.038100,0.030800,-1.013500,-0.014900,0.033900
321208007,-0.010500,-0.011600,-0.048100,-1.014700,-0.013400,0.034900
321228026,-0.062900,0.093500,-0.135300,-1.013700,-0.015400,0.035900
321248012,-0.115000,-0.064600,-0.064500,-1.016400,-0.012000,0.033900
321268022,-0.044300,-0.265500,0.014700,-1.012500,-0.015100,0.033900
321288014,-0.070300,0.164900,0.163300,-1.014200,-0.014600,0.035100
321308035,-0.166100,0.190200,0.022300,-1.014700,-0.013700,0.034400
321328012,-0.217600,-0.073500,0.083400,-1.015200,-0.015100,0.032900
321398850,-0.032400,0.058200,0.056600,-1.011300,-0.014100,0.034100
321416021,0.029000,0.355300,0.248800,-1.014700,-0.016100,0.034900
321436013,-0.041200,0.423100,0.282200,-1.013700,-0.013700,0.035600
321456008,-0.224700,0.184200,0.149200,-1.015200,-0.013700,0.032400
321476019,-0.153200,-0.044500,-0.114200,-1.012500,-0.015100,0.032400
321496191,-0.082300,0.017000,-0.131000,-1.013500,-0.014400,0.034400
321516010,0.032000,-0.166800,-0.051400,-1.013000,-0.015100,0.035100
321536021,0.040500,-0.043300,0.097600,-1.013700,-0.017100,0.033200
321556007,0.022800,-0.025500,0.062000,-1.014200,-0.014600,0.035400
321576036,-0.029900,0.149700,0.096600,-1.017100,-0.012200,0.033400
321596193,-0.047200,-0.140000,-0.131500,-1.014000,-0.013900,0.033700
321616010,-0.029400,-0.279100,-0.148200,-1.012700,-0.013400,0.034100
321636019,0.075800,-0.356100,-0.129700,-1.013200,-0.016300,0.035900
321656027,0.031600,-0.056400,0.063600,-1.012700,-0.016600,0.034600
321687880,0.013900,0.223900,0.133200,-1.014700,-0.014600,0.033700
321757382,-0.047500,-0.048700,0.001100,-1.013200,-0.012200,0.035600
321777025,-0.047200,0.074100,-0.033900,-1.015700,-0.015400,0.034100
321797019,0.014400,0.266100,0.115100,-1.015900,-0.014900,0.031700
321817010,0.066800,0.124500,0.193100,-1.016400,-0.014400,0.031700
321837013,0.066400,-0.130100,-0.009400,-1.013200,-0.012700,0.032700
321857190,0.039700,-0.698000,-0.385600,-1.016400,-0.015600,0.032900
321877034,-0.004300,-0.474900,-0.295600,-1.012300,-0.014600,0.035100
321897010,-0.030500,0.123100,0.012500,-1.012300,-0.015600,0.037800
321917017,0.030900,0.708600,0.397400,-1.014900,-0.014100,0.034400
321982772,-0.065500,-0.599600,-0.418900,-1.012500,-0.015100,0.034100
322002340,-0.030100,-0.097100,-0.215000,-1.011800,-0.017300,0.036800
322022012,0.022600,0.349800,0.162600,-1.013500,-0.015600,0.035100
322042237,0.031200,0.321300,0.319100,-1.012300,-0.013900,0.033900
322066777,0.022200,-0.039500,0.107100,-1.014200,-0.016100,0.034400
322086032,-0.021600,-0.109200,-0.164800,-1.012700,-0.012900,0.033200
322106014,-0.047800,0.040200,-0.146300,-1.014700,-0.016100,0.034900
322126008,0.005000,0.031200,0.012100,-1.014700,-0.015600,0.034400
322146020,0.057500,-0.012700,0.090800,-1.011300,-0.016100,0.036800
322213564,0.004700,-0.082600,0.037700,-1.013200,-0.013400,0.033400
322233025,-0.021600,-0.160900,-0.102500,-1.013700,-0.016300,0.033200
322253030,0.022300,0.067600,-0.093100,-1.015200,-0.012900,0.034100
322273023,0.030900,0.119700,0.047500,-1.013500,-0.013400,0.035400
322293032,0.056900,0.162700,0.204700,-1.012700,-0.014400,0.033400
322313175,0.030300,0.214200,0.220900,-1.015400,-0.014900,0.034400
322333009,0.038900,-0.058400,0.044500,-1.015400,-0.014900,0.035900
322353025,-0.040100,-0.381800,-0.297000,-1.014200,-0.014600,0.034900
322423938,-0.013600,0.040600,0.028600,-1.011300,-0.015600,0.037300
322441016,0.065200,0.206600,0.194700,-1.014000,-0.015100,0.036100
322461014,0.029800,0.231600,0.044700,-1.012000,-0.015600,0.033400
322481021,-0.005400,-0.189900,-0.043100,-1.013700,-0.012700,0.034400
322501008,-0.005300,-0.188700,-0.182800,-1.015900,-0.016100,0.034900
322521184,-0.014100,0.101200,0.010800,-1.013000,-0.016300,0.037100
322541015,0.082300,0.118100,0.150800,-1.014900,-0.016100,0.034900
322561026,0.073000,-0.066400,0.123600,-1.014200,-0.016600,0.034900
322581026,-0.067400,0.021500,-0.122200,-1.012000,-0.013700,0.034400
322648802,0.099200,0.152600,0.228500,-1.012000,-0.015100,0.034900
322668011,0.063600,0.204200,0.139600,-1.017100,-0.014900,0.033700
322688014,-0.006800,-0.007100,-0.080000,-1.015200,-0.012200,0.034400
322708010,-0.041800,-0.313300,-0.228300,-1.015400,-0.013700,0.035600
322728021,0.002300,-0.276300,-0.139300,-1.013700,-0.018300,0.036600
322748196,0.054700,0.162900,0.159000,-1.013500,-0.013400,0.033400
322768034,0.019400,0.013100,-0.034500,-1.016200,-0.016800,0.035600
322788008,-0.007000,-0.284500,-0.183000,-1.011500,-0.017100,0.034400
322808019,0.019300,-0.125200,-0.129300,-1.015700,-0.017300,0.037300
322874203,0.045500,0.138100,0.125200,-1.014000,-0.014600,0.034400
322894012,0.001400,-0.142800,-0.024300,-1.012300,-0.012700,0.033700
322914013,-0.033600,-0.360600,-0.225400,-1.015400,-0.018000,0.034400
322934030,-0.050900,-0.402100,-0.224000,-1.012500,-0.014900,0.034100
322954013,0.054400,0.011700,0.109900,-1.013700,-0.016800,0.036800
322974185,0.071600,0.274100,0.249200,-1.014900,-0.013900,0.035100
322994031,0.044900,0.228600,0.142700,-1.013500,-0.015100,0.033400
323014030,-0.060400,-0.262800,-0.103200,-1.012000,-0.013400,0.033400
323082669,0.018700,-0.007400,0.046200,-1.013000,-0.018000,0.037100
323102030,0.036100,-0.086100,-0.015400,-1.017600,-0.014600,0.038300
323122017,-0.042900,-0.006800,-0.032800,-1.013500,-0.014400,0.035600
323142017,0.009900,0.264500,0.089900,-1.012000,-0.013700,0.036100
323162015,0.088600,-0.087200,0.054400,-1.011800,-0.014900,0.034900
323182183,0.009300,-0.051600,-0.059700,-1.014900,-0.014600,0.034900
323202026,-0.008300,-0.130100,-0.129400,-1.015400,-0.012900,0.036800
323222020,-0.043200,0.115800,0.046500,-1.010800,-0.015400,0.038100
323242643,0.062100,0.333800,0.221200,-1.014700,-0.012400,0.034600
323262010,0.044200,0.069200,0.001000,-1.013700,-0.015400,0.036100
323282188,0.017600,-0.071200,0.018500,-1.012700,-0.017100,0.036600
323302019,0.026300,0.008000,0.044700,-1.014400,-0.014100,0.035400
323322034,0.017400,0.042900,0.035600,-1.015700,-0.016100,0.032700
323342025,0.034800,-0.114900,-0.043400,-1.014400,-0.015400,0.036800
323362209,0.025800,0.122100,0.018200,-1.014900,-0.013900,0.037800
323448380,-0.009400,-0.001200,0.009300,-1.013500,-0.014100,0.035100
323465008,0.008200,-0.132400,-0.095800,-1.014700,-0.014600,0.037600
323485027,0.060600,-0.402800,-0.156400,-1.014000,-0.016800,0.038100
323505009,0.051500,0.072200,0.045800,-1.013700,-0.013700,0.036300
323525036,-0.010100,0.176800,0.071800,-1.013000,-0.016100,0.035600
323545176,-0.027500,0.105600,0.027600,-1.014700,-0.015900,0.037100
323565029,0.007700,-0.113800,-0.007600,-1.015200,-0.012700,0.036600
323585024,-0.018600,-0.060600,-0.112500,-1.015200,-0.013400,0.034900
323605022,0.025200,-0.051400,-0.024300,-1.015400,-0.015900,0.037800
323672050,0.033800,-0.033600,0.010800,-1.013500,-0.016100,0.037600
323691013,-0.010100,-0.077100,-0.111700,-1.011800,-0.015400,0.034100
323711018,-0.018800,-0.172900,-0.163500,-1.014200,-0.014600,0.036800
323731029,0.007500,-0.198100,-0.162500,-1.013000,-0.014900,0.035100
323751017,0.025000,0.100700,0.092300,-1.014400,-0.014100,0.038500
323771179,0.016100,0.275000,0.144200,-1.011000,-0.014600,0.035100
323791025,0.051000,0.474600,0.248300,-1.012500,-0.011700,0.035600
323811251,0.015700,-0.132200,-0.007000,-1.013200,-0.011500,0.035100
323879249,0.024300,0.192400,0.115500,-1.012700,-0.016100,0.037600
323899035,0.085400,0.121200,0.184800,-1.012000,-0.016600,0.033700
323919024,0.006100,0.190400,0.061100,-1.014000,-0.014600,0.034100
323939032,-0.028900,0.040500,-0.009300,-1.015400,-0.013900,0.036600
323959025,0.015000,-0.091000,-0.088000,-1.013700,-0.016600,0.038500
323979188,0.032400,0.364600,0.236300,-1.015200,-0.014400,0.035600
323999028,0.006000,0.222300,0.173600,-1.014000,-0.013200,0.036100
324019020,0.023400,0.098400,0.067500,-1.015700,-0.014900,0.035100
324090958,-0.011700,0.115300,0.102100,-1.014000,-0.015400,0.035900
324110032,0.075900,0.298300,0.189000,-1.010100,-0.016600,0.035100
324130028,0.075400,0.077700,0.056500,-1.012700,-0.015400,0.032700
324150013,0.022400,-0.386600,-0.180100,-1.015700,-0.015900,0.035600
324170016,-0.100200,-0.314200,-0.310200,-1.013500,-0.015400,0.031500
324190509,-0.029600,0.064100,-0.045800,-1.014400,-0.014600,0.035900
324210009,0.084300,0.396200,0.252000,-1.014700,-0.014400,0.035900
324230016,0.057600,0.192400,0.162900,-1.014400,-0.014400,0.034600
324250028,0.048500,-0.018800,0.091900,-1.013200,-0.012700,0.036300
324317216,-0.004400,-0.079900,0.038800,-1.013700,-0.016800,0.036100
324337015,0.074400,0.183100,0.204900,-1.011300,-0.017800,0.034100
324357019,-0.031000,0.269400,0.133600,-1.013700,-0.013700,0.033900
324377094,0.047900,0.092700,0.089000,-1.013700,-0.015100,0.037600
324397019,0.047600,-0.056600,-0.034100,-1.015700,-0.014400,0.032000
324419477,0.021100,-0.143700,-0.147600,-1.015200,-0.015400,0.035400
324437036,0.012200,-0.081600,-0.120400,-1.012700,-0.017300,0.036600
324457027,0.064600,0.023900,-0.014700,-1.015400,-0.014600,0.035400
324477023,0.020400,-0.230000,-0.049600,-1.015200,-0.013400,0.033700
324497029,-0.014700,-0.071000,-0.031800,-1.013200,-0.013200,0.032000
324517191,0.011700,-0.009300,-0.136600,-1.013700,-0.013900,0.036100
324537020,0.011600,-0.079300,-0.030700,-1.011800,-0.014100,0.034100
324602488,-0.006000,0.105000,-0.013000,-1.011500,-0.012700,0.034600
324622033,-0.006000,-0.158200,-0.091700,-1.013500,-0.013400,0.034100
324642035,0.055300,-0.192200,-0.091100,-1.013700,-0.015100,0.035400
324677528,0.011200,0.246500,0.137000,-1.012700,-0.017100,0.036300
324697028,0.063700,0.087500,0.153600,-1.016200,-0.014900,0.034600
324717195,-0.006700,-0.044300,0.135100,-1.015900,-0.015600,0.034900
324737033,0.002100,0.148500,0.046800,-1.012500,-0.014100,0.034600
324757027,-0.024200,0.261300,0.029000,-1.014000,-0.016300,0.035100
324777007,-0.050300,0.014600,-0.023700,-1.014400,-0.014600,0.034600
324811865,0.063800,-0.108000,0.064000,-1.015400,-0.015900,0.036300
324831021,0.037100,0.102700,0.046000,-1.014700,-0.016100,0.037800
324886546,-0.059400,0.049600,0.089500,-1.014000,-0.016100,0.034900
324906027,0.011000,-0.012000,0.018900,-1.012500,-0.014900,0.034100
324926033,-0.032800,-0.003200,0.010100,-1.015200,-0.015100,0.036100
324946007,-0.015100,-0.169400,-0.112500,-1.013200,-0.014400,0.033700
324966020,0.072500,-0.159600,-0.006800,-1.014700,-0.015600,0.035600
324986009,0.019500,0.077700,-0.041700,-1.014200,-0.014400,0.035100
325006024,-0.033100,-0.036600,-0.067700,-1.016600,-0.012700,0.036300
325091194,-0.006600,-0.158800,-0.119800,-1.012000,-0.013900,0.035900
325111009,-0.015300,-0.341600,-0.250300,-1.011000,-0.014400,0.034400
325131016,0.054700,-0.173200,-0.117500,-1.013500,-0.016100,0.035600
325151028,-0.006800,0.160400,0.102000,-1.011800,-0.017300,0.035600
325171015,0.001900,0.098100,0.162600,-1.014700,-0.016100,0.033900
325191196,0.019400,0.351300,0.126600,-1.012000,-0.016800,0.034400
325211030,-0.041900,-0.009700,-0.075400,-1.012700,-0.016800,0.035400
325231028,-0.067900,-0.604600,-0.285000,-1.013500,-0.013700,0.035900
325251032,0.020000,-0.460800,-0.169400,-1.014900,-0.014100,0.036300
325316115,0.046100,-0.090400,0.024100,-1.014200,-0.013400,0.036300
325335007,0.002100,-0.273600,-0.124800,-1.013000,-0.016300,0.035900
325355028,-0.024200,-0.035600,-0.062700,-1.011800,-0.015900,0.040200
325375016,0.011000,0.804600,0.383900,-1.014400,-0.017100,0.034600
325395011,0.010900,0.405800,0.136500,-1.014400,-0.015400,0.034100
325417822,0.045800,-0.384300,-0.170600,-1.013500,-0.013400,0.034100
325435030,-0.033200,-0.443100,-0.187000,-1.013200,-0.015100,0.038100
325455029,0.010800,-0.107800,-0.037100,-1.014400,-0.014100,0.037100
325475010,-0.024300,0.006600,0.015600,-1.014700,-0.016100,0.037100
325495019,0.010800,-0.185900,-0.037000,-1.014200,-0.014100,0.035400
325515187,-0.059200,-0.456000,-0.159200,-1.014900,-0.015400,0.034900
325535023,-0.058900,-0.313200,-0.219500,-1.013000,-0.012900,0.038800
325555007,-0.058500,0.082600,-0.078100,-1.013700,-0.017100,0.037800
325620335,-0.058100,0.152000,0.167400,-1.010100,-0.015100,0.038300
325640220,-0.084000,0.282300,0.043800,-1.013200,-0.012900,0.035100
325660193,-0.048500,-0.078200,-0.043900,-1.014900,-0.016800,0.035900
325680034,-0.021900,0.071100,0.026300,-1.015400,-0.014900,0.033700
325700012,-0.013000,0.123100,0.122400,-1.014700,-0.014600,0.035100
325720186,0.030800,0.087300,0.025400,-1.013500,-0.013900,0.036100
325740015,-0.013100,-0.035700,-0.053500,-1.014000,-0.015600,0.038100
325760018,-0.039300,0.052000,0.025600,-1.016200,-0.017800,0.035900
325828089,-0.109100,-0.272100,-0.132100,-1.013700,-0.014600,0.033400
325847027,-0.047100,-0.541600,-0.201300,-1.015400,-0.016300,0.036100
325867025,0.040700,-0.459500,-0.095000,-1.014400,-0.016600,0.038100
325887030,-0.038300,0.085900,0.054300,-1.014700,-0.016100,0.033400
325907021,0.023200,0.102900,0.036500,-1.016900,-0.016300,0.034100
325927189,0.066800,-0.072800,-0.060000,-1.013200,-0.015100,0.037800
325947022,-0.003700,-0.081000,-0.050800,-1.012000,-0.014900,0.035600
325967016,-0.021100,-0.080500,0.002000,-1.013700,-0.014600,0.038100
325987027,0.031500,0.173700,0.080700,-1.017100,-0.014400,0.034900
326053427,0.005000,0.216400,0.019000,-1.014400,-0.015100,0.035400
326072342,0.013800,0.118800,0.010100,-1.013000,-0.014600,0.035400
326092022,0.048700,0.004300,0.001300,-1.015700,-0.014900,0.038300
326112016,0.013400,-0.092000,-0.060000,-1.012700,-0.015900,0.035600
326132032,-0.004200,0.092300,0.089100,-1.013000,-0.012400,0.035900
326152193,0.013300,0.153000,0.036100,-1.013500,-0.014100,0.034100
326172023,0.013200,-0.093000,-0.086600,-1.015200,-0.015400,0.033900
326192025,0.004400,-0.057400,-0.051100,-1.011800,-0.017300,0.037100
326260363,0.083100,0.188000,0.150500,-1.013200,-0.015100,0.033400
326280015,-0.013600,0.108000,0.053300,-1.012500,-0.015600,0.034100
326300020,-0.004800,0.238600,0.026700,-1.011800,-0.013700,0.032400
326320020,0.021500,-0.016600,-0.008500,-1.012000,-0.012700,0.036300
326340028,0.021300,-0.051500,0.026600,-1.013000,-0.015400,0.033200
326361947,0.012400,-0.147500,-0.017300,-1.010100,-0.012700,0.035900
326380011,0.029900,0.002200,-0.061000,-1.014400,-0.013700,0.035900
326400042,0.029700,0.107200,-0.034300,-1.015200,-0.015900,0.036100
326420357,0.047000,0.045300,0.018400,-1.012500,-0.012700,0.034100
326487100,0.046700,0.386300,0.184500,-1.015900,-0.011700,0.030700
326506032,-0.014800,-0.219900,-0.052900,-1.012700,-0.015100,0.035600
326526020,-0.014800,-0.463500,-0.218800,-1.014900,-0.015600,0.035900
326546022,-0.023400,-0.180600,-0.235000,-1.014900,-0.016800,0.035900
326566016,-0.005800,-0.039500,-0.041000,-1.013200,-0.016100,0.034400
326586184,0.046800,0.179500,0.195500,-1.012000,-0.014100,0.035600
326606014,0.037700,0.090900,0.168100,-1.016200,-0.014600,0.034100
326626018,0.011200,-0.049700,-0.008000,-1.013500,-0.014400,0.035600
326696744,0.037400,0.151900,0.053300,-1.013700,-0.014100,0.034600
326716029,0.063400,0.133400,0.096700,-1.012700,-0.014900,0.034100
326736019,-0.042000,0.001300,-0.078900,-1.013700,-0.012400,0.033400
326756017,-0.032900,-0.269900,-0.244600,-1.015200,-0.014600,0.034600
326776027,-0.015200,-0.495700,-0.155600,-1.011800,-0.016300,0.035900
326796182,0.046100,-0.046400,0.099100,-1.013000,-0.017600,0.038100
326816012,0.045800,0.338900,0.256000,-1.012300,-0.010500,0.036300
326836008,0.054300,0.214300,0.061900,-1.013700,-0.014600,0.034900
326856017,-0.042300,0.011700,-0.026000,-1.013200,-0.015100,0.032200
326924115,0.028000,-0.163400,-0.060800,-1.016200,-0.015900,0.035400
326943023,0.027800,-0.477400,-0.174200,-1.011300,-0.013700,0.033900
326963018,-0.016100,-0.159400,-0.181900,-1.010300,-0.016800,0.036100
326983019,0.036500,-0.018400,0.055500,-1.013500,-0.015900,0.035900
327003023,0.062500,0.498000,0.396400,-1.010100,-0.014400,0.035900
327023279,0.105800,0.739900,0.350200,-1.016600,-0.014400,0.034900
327043009,-0.061100,0.070200,0.033000,-1.013500,-0.013400,0.031200
327063014,-0.043200,-0.306500,-0.299700,-1.015700,-0.015400,0.034600
327130244,-0.007900,0.159200,0.078400,-1.016900,-0.016300,0.033900
327150016,-0.016600,-0.253000,-0.158300,-1.010500,-0.014400,0.035900
327170030,-0.007800,-0.181400,-0.087300,-1.014900,-0.016600,0.036300
327190029,0.036000,0.117200,0.009500,-1.014700,-0.014900,0.036300
327210016,-0.007900,0.081500,0.114400,-1.014400,-0.015900,0.036300
327230182,-0.025400,0.430900,0.139900,-1.012500,-0.015900,0.036300
327250020,0.053500,0.235700,0.104100,-1.016600,-0.017300,0.035400
327270329,-0.078100,-0.264500,-0.106600,-1.014200,-0.014100,0.035100
327290030,-0.025100,-0.227800,-0.184700,-1.014900,-0.016800,0.037100
327310029,0.010100,-0.086400,-0.052300,-1.014000,-0.013900,0.035900
327332318,0.071300,0.124100,0.149300,-1.014200,-0.016800,0.035100
327350012,0.027100,0.228400,0.095900,-1.013500,-0.014100,0.035400
327370014,-0.016900,0.165700,-0.088500,-1.012700,-0.014400,0.036100
327390018,-0.034300,-0.106600,-0.096700,-1.014400,-0.015600,0.033400
327410008,0.027200,-0.254700,-0.043600,-1.013200,-0.016800,0.036300
327430735,0.088300,0.070700,0.140500,-1.013000,-0.016300,0.035100
327497353,0.035200,-0.402300,-0.140400,-1.014000,-0.017100,0.035900
327517036,0.105000,0.046500,0.140500,-1.014700,-0.017100,0.038100
327537032,0.060600,0.046200,0.130800,-1.012700,-0.017100,0.036100
327557020,-0.001000,-0.050300,-0.018700,-1.014700,-0.014900,0.034900
327577020,-0.044800,0.291200,0.042600,-1.011000,-0.014900,0.036800
327597019,0.008000,0.201900,0.103600,-1.017600,-0.015400,0.034600
327617022,-0.009500,0.191900,0.164200,-1.013700,-0.014600,0.035100
327703263,0.069300,0.251900,0.128200,-1.014000,-0.015900,0.034900
327723012,0.060100,0.119100,0.074900,-1.013200,-0.016300,0.036100
327743339,0.033500,0.109600,0.065600,-1.013200,-0.013200,0.033200
327763034,0.059500,-0.004800,0.039000,-1.015900,-0.014100,0.032400
327783012,-0.010900,-0.136100,-0.040000,-1.012500,-0.012700,0.037600
327803184,-0.045800,-0.161500,-0.083500,-1.015200,-0.015900,0.037100
327823023,-0.054300,-0.011700,-0.109200,-1.015200,-0.017600,0.037300
327843231,0.024800,0.110900,0.049000,-1.014200,-0.018000,0.034400
327863016,0.068400,0.110200,0.136100,-1.014700,-0.013700,0.033400
327929458,0.033000,0.048200,0.004000,-1.011500,-0.017100,0.033900
327949026,0.050300,0.074200,0.039000,-1.009800,-0.016600,0.032700
327969016,0.041200,0.056200,0.152500,-1.011500,-0.015400,0.033700
327989034,-0.020300,0.055900,-0.032200,-1.012300,-0.014600,0.035100
328009021,-0.002700,-0.058200,-0.014500,-1.015400,-0.015400,0.034600
328029180,0.006100,-0.066600,0.020600,-1.011300,-0.017600,0.031500
328049020,0.023600,0.065000,0.099200,-1.012000,-0.015900,0.035600
328069028,0.005900,0.458400,0.159900,-1.011000,-0.013200,0.033200
328155423,0.040900,0.341800,0.123800,-1.012700,-0.016100,0.036800
328174014,0.040600,0.444600,0.184300,-1.013200,-0.013700,0.034400
328194034,0.014100,0.056800,0.104400,-1.014900,-0.016600,0.032200
328214016,0.057800,-0.188500,-0.071200,-1.012300,-0.014100,0.032900
328234033,-0.021300,-0.126100,-0.114500,-1.014900,-0.015400,0.035600
328254198,-0.012500,0.084700,-0.113800,-1.014200,-0.014600,0.034600
328274024,-0.056100,0.014200,0.000600,-1.014700,-0.014900,0.034400
328294007,0.014200,-0.257200,-0.078100,-1.014700,-0.012200,0.034100
