Timestamp,sysCal,gyroCal,accelCal,magCal,rawAccelX,rawAccelY,rawAccelZ,accelX,accelY,accelZ,rawGyroX,rawGyroY,rawGyroZ,gyroX,gyroY,gyroZ,rawMagX,rawMagY,rawMagZ,magX,magY,magZ,linAccelX,linAccelY,linAccelZ
1969-12-31T19:13:08.833000,0,0,0,0,-1.6438692808151245,-2.234896183013916,9.530611991882324,-1.6473944187164307,-2.224785327911377,9.537087440490723,-0.3499999940395355,-0.11374999582767487,0.24500000476837158,-0.7370879054069519,0.2606320381164551,0.4981786012649536,3.946214437484741,0.0,0.0,3.9462132453918457,-231.17039489746094,75.82499694824219,-0.05025225132703781,-0.115778848528862,0.09057971835136414
1969-12-31T19:13:08.841000,0,0,0,0,-1.6462620496749878,-2.227717876434326,9.542576789855957,-1.6471894979476929,-2.225316047668457,9.538081169128418,-0.73499995470047,0.4987499713897705,0.48125001788139343,-0.7368893027305603,0.283282995223999,0.4965682625770569,3.946214437484741,0.0,0.0,3.9462132453918457,-251.53468322753906,91.38679504394531,-0.048328232020139694,-0.11379850655794144,0.09242594987154007
1969-12-31T19:13:08.842000,0,0,0,0,-1.6462620496749878,-2.227717876434326,9.542576789855957,-1.6471894979476929,-2.225316047668457,9.538081169128418,-0.73499995470047,0.4987499713897705,0.48125001788139343,-0.7368893027305603,0.283282995223999,0.4965682625770569,3.946214437484741,0.0,0.0,3.9462132453918457,-251.53468322753906,91.38679504394531,-0.048328232020139694,-0.11379850655794144,0.09242594987154007
1969-12-31T19:13:08.843000,0,0,0,0,-1.6462620496749878,-2.227717876434326,9.542576789855957,-1.6471894979476929,-2.225316047668457,9.538081169128418,-0.73499995470047,0.4987499713897705,0.48125001788139343,-0.7368893027305603,0.283282995223999,0.4965682625770569,3.946214437484741,0.0,0.0,3.9462132453918457,-251.53468322753906,91.38679504394531,-0.048328232020139694,-0.11379850655794144,0.09242594987154007
1969-12-31T19:13:08.844000,0,0,0,0,-1.6462620496749878,-2.227717876434326,9.542576789855957,-1.6471894979476929,-2.225316047668457,9.538081169128418,-0.73499995470047,0.4987499713897705,0.48125001788139343,-0.7368893027305603,0.283282995223999,0.4965682625770569,3.946214437484741,0.0,0.0,3.9462132453918457,-251.53468322753906,91.38679504394531,-0.048328232020139694,-0.11379850655794144,0.09242594987154007
1969-12-31T19:13:08.845000,0,0,0,0,-1.6462620496749878,-2.227717876434326,9.542576789855957,-1.6471894979476929,-2.225316047668457,9.538081169128418,-0.73499995470047,0.4987499713897705,0.48125001788139343,-0.7368893027305603,0.283282995223999,0.4965682625770569,3.946214437484741,0.0,0.0,3.9462132453918457,-251.53468322753906,91.38679504394531,-0.048328232020139694,-0.11379850655794144,0.09242594987154007
1969-12-31T19:13:08.853000,0,0,0,0,-1.6654046773910522,-2.239682197570801,9.525827407836914,-1.6504863500595093,-2.2279162406921387,9.535862922668457,-0.4112500250339508,0.3062500059604645,0.5249999761581421,-0.7059128880500793,0.2854677438735962,0.49927282333374023,3.946214437484741,0.0,0.0,3.9462132453918457,-269.9618225097656,105.46827697753906,-0.04986734688282013,-0.1140427440404892,0.09103277325630188
1969-12-31T19:13:08.854000,0,0,0,0,-1.6654046773910522,-2.239682197570801,9.525827407836914,-1.6504863500595093,-2.2279162406921387,9.535862922668457,-0.4112500250339508,0.3062500059604645,0.5249999761581421,-0.7059128880500793,0.2854677438735962,0.49927282333374023,3.946214437484741,0.0,0.0,3.9462132453918457,-269.9618225097656,105.46827697753906,-0.04986734688282013,-0.1140427440404892,0.09103277325630188
1969-12-31T19:13:08.855000,0,0,0,0,-1.6654046773910522,-2.239682197570801,9.525827407836914,-1.6504863500595093,-2.2279162406921387,9.535862922668457,-0.4112500250339508,0.3062500059604645,0.5249999761581421,-0.7059128880500793,0.2854677438735962,0.49927282333374023,3.946214437484741,0.0,0.0,3.9462132453918457,-269.9618225097656,105.46827697753906,-0.04986734688282013,-0.1140427440404892,0.09103277325630188
1969-12-31T19:13:08.856000,0,0,0,0,-1.6654046773910522,-2.239682197570801,9.525827407836914,-1.6504863500595093,-2.2279162406921387,9.535862922668457,-0.4112500250339508,0.3062500059604645,0.5249999761581421,-0.7059128880500793,0.2854677438735962,0.49927282333374023,3.946214437484741,0.0,0.0,3.9462132453918457,-269.9618225097656,105.46827697753906,-0.04986734688282013,-0.1140427440404892,0.09103277325630188
1969-12-31T19:13:08.857000,0,0,0,0,-1.6654046773910522,-2.239682197570801,9.525827407836914,-1.6504863500595093,-2.2279162406921387,9.535862922668457,-0.4112500250339508,0.3062500059604645,0.5249999761581421,-0.7059128880500793,0.2854677438735962,0.49927282333374023,3.946214437484741,0.0,0.0,3.9462132453918457,-269.9618225097656,105.46827697753906,-0.04986734688282013,-0.1140427440404892,0.09103277325630188
1969-12-31T19:13:08.865000,0,0,0,0,-1.6845470666885376,-2.234896183013916,9.521041870117188,-1.656651258468628,-2.229179620742798,9.533180236816406,-0.2800000011920929,0.14000000059604645,0.42875000834465027,-0.6653980016708374,0.2716301381587982,0.4925643503665924,3.946214437484741,0.0,0.0,3.9462132453918457,-286.6360778808594,118.21025848388672,-0.05425288900732994,-0.11310840398073196,0.0891440361738205
1969-12-31T19:13:08.866000,0,0,0,0,-1.6845470666885376,-2.234896183013916,9.521041870117188,-1.656651258468628,-2.229179620742798,9.533180236816406,-0.2800000011920929,0.14000000059604645,0.42875000834465027,-0.6653980016708374,0.2716301381587982,0.4925643503665924,3.946214437484741,0.0,0.0,3.9462132453918457,-286.6360778808594,118.21025848388672,-0.05425288900732994,-0.11310840398073196,0.0891440361738205
1969-12-31T19:13:08.867000,0,0,0,0,-1.6845470666885376,-2.234896183013916,9.521041870117188,-1.656651258468628,-2.229179620742798,9.533180236816406,-0.2800000011920929,0.14000000059604645,0.42875000834465027,-0.6653980016708374,0.2716301381587982,0.4925643503665924,3.946214437484741,0.0,0.0,3.9462132453918457,-286.6360778808594,118.21025848388672,-0.05425288900732994,-0.11310840398073196,0.0891440361738205
1969-12-31T19:13:08.868000,0,0,0,0,-1.6845470666885376,-2.234896183013916,9.521041870117188,-1.656651258468628,-2.229179620742798,9.533180236816406,-0.2800000011920929,0.14000000059604645,0.42875000834465027,-0.6653980016708374,0.2716301381587982,0.4925643503665924,3.946214437484741,0.0,0.0,3.9462132453918457,-286.6360778808594,118.21025848388672,-0.05425288900732994,-0.11310840398073196,0.0891440361738205
1969-12-31T19:13:08.869000,0,0,0,0,-1.6845470666885376,-2.234896183013916,9.521041870117188,-1.656651258468628,-2.229179620742798,9.533180236816406,-0.2800000011920929,0.14000000059604645,0.42875000834465027,-0.6653980016708374,0.2716301381587982,0.4925643503665924,3.946214437484741,0.0,0.0,3.9462132453918457,-286.6360778808594,118.21025848388672,-0.05425288900732994,-0.11310840398073196,0.0891440361738205
1969-12-31T19:13:08.877000,0,0,0,0,-1.6223338842391968,-2.225324869155884,9.547362327575684,-1.6504398584365845,-2.2284820079803467,9.535747528076172,-0.27125000953674316,-0.05249999836087227,0.4462500214576721,-0.6279047131538391,0.24079729616641998,0.4881587028503418,3.946214437484741,0.0,0.0,3.9462132453918457,-301.7242126464844,129.7401580810547,-0.04707137122750282,-0.11036649346351624,0.09233304113149643
1969-12-31T19:13:08.878000,0,0,0,0,-1.6223338842391968,-2.225324869155884,9.547362327575684,-1.6504398584365845,-2.2284820079803467,9.535747528076172,-0.27125000953674316,-0.05249999836087227,0.4462500214576721,-0.6279047131538391,0.24079729616641998,0.4881587028503418,3.946214437484741,0.0,0.0,3.9462132453918457,-301.7242126464844,129.7401580810547,-0.04707137122750282,-0.11036649346351624,0.09233304113149643
1969-12-31T19:13:08.879000,0,0,0,0,-1.6223338842391968,-2.225324869155884,9.547362327575684,-1.6504398584365845,-2.2284820079803467,9.535747528076172,-0.27125000953674316,-0.05249999836087227,0.4462500214576721,-0.6279047131538391,0.24079729616641998,0.4881587028503418,3.946214437484741,0.0,0.0,3.9462132453918457,-301.7242126464844,129.7401580810547,-0.04707137122750282,-0.11036649346351624,0.09233304113149643
1969-12-31T19:13:08.880000,0,0,0,0,-1.6223338842391968,-2.225324869155884,9.547362327575684,-1.6504398584365845,-2.2284820079803467,9.535747528076172,-0.27125000953674316,-0.05249999836087227,0.4462500214576721,-0.6279047131538391,0.24079729616641998,0.4881587028503418,3.946214437484741,0.0,0.0,3.9462132453918457,-301.7242126464844,129.7401580810547,-0.04707137122750282,-0.11036649346351624,0.09233304113149643
1969-12-31T19:13:08.881000,0,0,0,0,-1.6223338842391968,-2.225324869155884,9.547362327575684,-1.6504398584365845,-2.2284820079803467,9.535747528076172,-0.27125000953674316,-0.05249999836087227,0.4462500214576721,-0.6279047131538391,0.24079729616641998,0.4881587028503418,3.946214437484741,0.0,0.0,3.9462132453918457,-301.7242126464844,129.7401580810547,-0.04707137122750282,-0.11036649346351624,0.09233304113149643
1969-12-31T19:13:08.890000,0,0,0,0,-1.6319050788879395,-2.239682197570801,9.533005714416504,-1.6470850706100464,-2.2305092811584473,9.53525161743164,-0.6825000047683716,0.20999999344348907,0.5774999856948853,-0.6330980658531189,0.23786771297454834,0.49665728211402893,3.946214437484741,0.0,0.0,3.9462132453918457,-315.3770751953125,140.17327880859375,-0.042406391352415085,-0.1098858192563057,0.09262274205684662
1969-12-31T19:13:08.890000,0,0,0,0,-1.6319050788879395,-2.239682197570801,9.533005714416504,-1.6470850706100464,-2.2305092811584473,9.53525161743164,-0.6825000047683716,0.20999999344348907,0.5774999856948853,-0.6330980658531189,0.23786771297454834,0.49665728211402893,3.946214437484741,0.0,0.0,3.9462132453918457,-315.3770751953125,140.17327880859375,-0.042406391352415085,-0.1098858192563057,0.09262274205684662
1969-12-31T19:13:08.891000,0,0,0,0,-1.6319050788879395,-2.239682197570801,9.533005714416504,-1.6470850706100464,-2.2305092811584473,9.53525161743164,-0.6825000047683716,0.20999999344348907,0.5774999856948853,-0.6330980658531189,0.23786771297454834,0.49665728211402893,3.946214437484741,0.0,0.0,3.9462132453918457,-315.3770751953125,140.17327880859375,-0.042406391352415085,-0.1098858192563057,0.09262274205684662
1969-12-31T19:13:08.892000,0,0,0,0,-1.6319050788879395,-2.239682197570801,9.533005714416504,-1.6470850706100464,-2.2305092811584473,9.53525161743164,-0.6825000047683716,0.20999999344348907,0.5774999856948853,-0.6330980658531189,0.23786771297454834,0.49665728211402893,3.946214437484741,0.0,0.0,3.9462132453918457,-315.3770751953125,140.17327880859375,-0.042406391352415085,-0.1098858192563057,0.09262274205684662
1969-12-31T19:13:08.915000,0,0,0,0,-1.6582261323928833,-2.227717876434326,9.533005714416504,-1.6491016149520874,-2.230004072189331,9.534845352172852,-0.6737499833106995,0.48125001788139343,0.4987499713897705,-0.6369650959968567,0.26101943850517273,0.49685636162757874,3.946214437484741,0.0,0.0,3.9462132453918457,-327.7312316894531,149.61395263671875,-0.04265948757529259,-0.1070142462849617,0.09304842352867126
1969-12-31T19:13:08.916000,0,0,0,0,-1.6582261323928833,-2.227717876434326,9.533005714416504,-1.6491016149520874,-2.230004072189331,9.534845352172852,-0.6737499833106995,0.48125001788139343,0.4987499713897705,-0.6369650959968567,0.26101943850517273,0.49685636162757874,3.946214437484741,0.0,0.0,3.9462132453918457,-327.7312316894531,149.61395263671875,-0.04265948757529259,-0.1070142462849617,0.09304842352867126
1969-12-31T19:13:08.917000,0,0,0,0,-1.6582261323928833,-2.227717876434326,9.533005714416504,-1.6491016149520874,-2.230004072189331,9.534845352172852,-0.6737499833106995,0.48125001788139343,0.4987499713897705,-0.6369650959968567,0.26101943850517273,0.49685636162757874,3.946214437484741,0.0,0.0,3.9462132453918457,-327.7312316894531,149.61395263671875,-0.04265948757529259,-0.1070142462849617,0.09304842352867126
1969-12-31T19:13:08.918000,0,0,0,0,-1.6582261323928833,-2.227717876434326,9.533005714416504,-1.6491016149520874,-2.230004072189331,9.534845352172852,-0.6737499833106995,0.48125001788139343,0.4987499713897705,-0.6369650959968567,0.26101943850517273,0.49685636162757874,3.946214437484741,0.0,0.0,3.9462132453918457,-327.7312316894531,149.61395263671875,-0.04265948757529259,-0.1070142462849617,0.09304842352867126
1969-12-31T19:13:08.919000,0,0,0,0,-1.6582261323928833,-2.227717876434326,9.533005714416504,-1.6491016149520874,-2.230004072189331,9.534845352172852,-0.6737499833106995,0.48125001788139343,0.4987499713897705,-0.6369650959968567,0.26101943850517273,0.49685636162757874,3.946214437484741,0.0,0.0,3.9462132453918457,-327.7312316894531,149.61395263671875,-0.04265948757529259,-0.1070142462849617,0.09304842352867126
1969-12-31T19:13:08.928000,0,0,0,0,-1.6701902151107788,-2.210968255996704,9.513862609863281,-1.6529185771942139,-2.2265586853027344,9.531047821044922,-0.11374999582767487,0.14875000715255737,0.33250001072883606,-0.5871943235397339,0.2503398060798645,0.4812219738960266,3.946214437484741,0.0,0.0,3.9462132453918457,-320.0464782714844,89.83544921875,-0.04488338902592659,-0.10178416222333908,0.08992394804954529
1969-12-31T19:13:08.929000,0,0,0,0,-1.6701902151107788,-2.210968255996704,9.513862609863281,-1.6529185771942139,-2.2265586853027344,9.531047821044922,-0.11374999582767487,0.14875000715255737,0.33250001072883606,-0.5871943235397339,0.2503398060798645,0.4812219738960266,3.946214437484741,0.0,0.0,3.9462132453918457,-320.0464782714844,89.83544921875,-0.04488338902592659,-0.10178416222333908,0.08992394804954529
1969-12-31T19:13:08.930000,0,0,0,0,-1.6701902151107788,-2.210968255996704,9.513862609863281,-1.6529185771942139,-2.2265586853027344,9.531047821044922,-0.11374999582767487,0.14875000715255737,0.33250001072883606,-0.5871943235397339,0.2503398060798645,0.4812219738960266,3.946214437484741,0.0,0.0,3.9462132453918457,-320.0464782714844,89.83544921875,-0.04488338902592659,-0.10178416222333908,0.08992394804954529
1969-12-31T19:13:08.931000,0,0,0,0,-1.6701902151107788,-2.210968255996704,9.513862609863281,-1.6529185771942139,-2.2265586853027344,9.531047821044922,-0.11374999582767487,0.14875000715255737,0.33250001072883606,-0.5871943235397339,0.2503398060798645,0.4812219738960266,3.946214437484741,0.0,0.0,3.9462132453918457,-320.0464782714844,89.83544921875,-0.04488338902592659,-0.10178416222333908,0.08992394804954529
1969-12-31T19:13:08.932000,0,0,0,0,-1.6701902151107788,-2.210968255996704,9.513862609863281,-1.6529185771942139,-2.2265586853027344,9.531047821044922,-0.11374999582767487,0.14875000715255737,0.33250001072883606,-0.5871943235397339,0.2503398060798645,0.4812219738960266,3.946214437484741,0.0,0.0,3.9462132453918457,-320.0464782714844,89.83544921875,-0.04488338902592659,-0.10178416222333908,0.08992394804954529
1969-12-31T19:13:08.941000,0,0,0,0,-1.6606189012527466,-2.2468602657318115,9.509077072143555,-1.6543123722076416,-2.2302331924438477,9.527070999145508,0.45499998331069946,-0.2887499928474426,0.1574999988079071,-0.4880557060241699,0.19905894994735718,0.45042794942855835,3.946214437484741,0.0,0.0,3.9462132453918457,-331.9564514160156,104.06449890136719,-0.04519009217619896,-0.10378222912549973,0.08650975674390793
1969-12-31T19:13:08.941000,0,0,0,0,-1.6606189012527466,-2.2468602657318115,9.509077072143555,-1.6543123722076416,-2.2302331924438477,9.527070999145508,0.45499998331069946,-0.2887499928474426,0.1574999988079071,-0.4880557060241699,0.19905894994735718,0.45042794942855835,3.946214437484741,0.0,0.0,3.9462132453918457,-331.9564514160156,104.06449890136719,-0.04519009217619896,-0.10378222912549973,0.08650975674390793
1969-12-31T19:13:08.942000,0,0,0,0,-1.6606189012527466,-2.2468602657318115,9.509077072143555,-1.6543123722076416,-2.2302331924438477,9.527070999145508,0.45499998331069946,-0.2887499928474426,0.1574999988079071,-0.4880557060241699,0.19905894994735718,0.45042794942855835,3.946214437484741,0.0,0.0,3.9462132453918457,-331.9564514160156,104.06449890136719,-0.04519009217619896,-0.10378222912549973,0.08650975674390793
1969-12-31T19:13:08.943000,0,0,0,0,-1.6606189012527466,-2.2468602657318115,9.509077072143555,-1.6543123722076416,-2.2302331924438477,9.527070999145508,0.45499998331069946,-0.2887499928474426,0.1574999988079071,-0.4880557060241699,0.19905894994735718,0.45042794942855835,3.946214437484741,0.0,0.0,3.9462132453918457,-331.9564514160156,104.06449890136719,-0.04519009217619896,-0.10378222912549973,0.08650975674390793
1969-12-31T19:13:08.944000,0,0,0,0,-1.6606189012527466,-2.2468602657318115,9.509077072143555,-1.6543123722076416,-2.2302331924438477,9.527070999145508,0.45499998331069946,-0.2887499928474426,0.1574999988079071,-0.4880557060241699,0.19905894994735718,0.45042794942855835,3.946214437484741,0.0,0.0,3.9462132453918457,-331.9564514160156,104.06449890136719,-0.04519009217619896,-0.10378222912549973,0.08650975674390793
1969-12-31T19:13:08.952000,0,0,0,0,-1.6390835046768188,-2.218146800994873,9.54496955871582,-1.6515560150146484,-2.228045701980591,9.53031063079834,0.612500011920929,-0.5512499809265137,0.19249999523162842,-0.3833654522895813,0.12768588960170746,0.42589259147644043,3.946214437484741,0.0,0.0,3.9462132453918457,-342.7334899902344,116.94001770019531,-0.04182080551981926,-0.1004074364900589,0.09012141078710556
1969-12-31T19:13:08.953000,0,0,0,0,-1.6390835046768188,-2.218146800994873,9.54496955871582,-1.6515560150146484,-2.228045701980591,9.53031063079834,0.612500011920929,-0.5512499809265137,0.19249999523162842,-0.3833654522895813,0.12768588960170746,0.42589259147644043,3.946214437484741,0.0,0.0,3.9462132453918457,-342.7334899902344,116.94001770019531,-0.04182080551981926,-0.1004074364900589,0.09012141078710556
1969-12-31T19:13:08.954000,0,0,0,0,-1.6390835046768188,-2.218146800994873,9.54496955871582,-1.6515560150146484,-2.228045701980591,9.53031063079834,0.612500011920929,-0.5512499809265137,0.19249999523162842,-0.3833654522895813,0.12768588960170746,0.42589259147644043,3.946214437484741,0.0,0.0,3.9462132453918457,-342.7334899902344,116.94001770019531,-0.04182080551981926,-0.1004074364900589,0.09012141078710556
1969-12-31T19:13:08.955000,0,0,0,0,-1.6390835046768188,-2.218146800994873,9.54496955871582,-1.6515560150146484,-2.228045701980591,9.53031063079834,0.612500011920929,-0.5512499809265137,0.19249999523162842,-0.3833654522895813,0.12768588960170746,0.42589259147644043,3.946214437484741,0.0,0.0,3.9462132453918457,-342.7334899902344,116.94001770019531,-0.04182080551981926,-0.1004074364900589,0.09012141078710556
1969-12-31T19:13:08.956000,0,0,0,0,-1.6390835046768188,-2.218146800994873,9.54496955871582,-1.6515560150146484,-2.228045701980591,9.53031063079834,0.612500011920929,-0.5512499809265137,0.19249999523162842,-0.3833654522895813,0.12768588960170746,0.42589259147644043,3.946214437484741,0.0,0.0,3.9462132453918457,-342.7334899902344,116.94001770019531,-0.04182080551981926,-0.1004074364900589,0.09012141078710556
1969-12-31T19:13:08.964000,0,0,0,0,-1.6390835046768188,-2.2229323387145996,9.528220176696777,-1.6492985486984253,-2.2271201610565186,9.529932022094727,0.6387500166893005,-0.6562499403953552,0.07874999940395355,-0.28613683581352234,0.05311407893896103,0.39287069439888,3.946214437484741,0.0,0.0,3.9462132453918457,-352.4853515625,128.5907440185547,-0.039039529860019684,-0.0982297956943512,0.09011418372392654
1969-12-31T19:13:08.965000,0,0,0,0,-1.6390835046768188,-2.2229323387145996,9.528220176696777,-1.6492985486984253,-2.2271201610565186,9.529932022094727,0.6387500166893005,-0.6562499403953552,0.07874999940395355,-0.28613683581352234,0.05311407893896103,0.39287069439888,3.946214437484741,0.0,0.0,3.9462132453918457,-352.4853515625,128.5907440185547,-0.039039529860019684,-0.0982297956943512,0.09011418372392654
1969-12-31T19:13:08.966000,0,0,0,0,-1.6390835046768188,-2.2229323387145996,9.528220176696777,-1.6492985486984253,-2.2271201610565186,9.529932022094727,0.6387500166893005,-0.6562499403953552,0.07874999940395355,-0.28613683581352234,0.05311407893896103,0.39287069439888,3.946214437484741,0.0,0.0,3.9462132453918457,-352.4853515625,128.5907440185547,-0.039039529860019684,-0.0982297956943512,0.09011418372392654
1969-12-31T19:13:08.967000,0,0,0,0,-1.6390835046768188,-2.2229323387145996,9.528220176696777,-1.6492985486984253,-2.2271201610565186,9.529932022094727,0.6387500166893005,-0.6562499403953552,0.07874999940395355,-0.28613683581352234,0.05311407893896103,0.39287069439888,3.946214437484741,0.0,0.0,3.9462132453918457,-352.4853515625,128.5907440185547,-0.039039529860019684,-0.0982297956943512,0.09011418372392654
1969-12-31T19:13:08.968000,0,0,0,0,-1.6390835046768188,-2.2229323387145996,9.528220176696777,-1.6492985486984253,-2.2271201610565186,9.529932022094727,0.6387500166893005,-0.6562499403953552,0.07874999940395355,-0.28613683581352234,0.05311407893896103,0.39287069439888,3.946214437484741,0.0,0.0,3.9462132453918457,-352.4853515625,128.5907440185547,-0.039039529860019684,-0.0982297956943512,0.09011418372392654
1969-12-31T19:13:08.987000,0,0,0,0,-1.6630116701126099,-2.2564315795898438,9.506684303283691,-1.651780605316162,-2.2324254512786865,9.525724411010742,1.4612500667572021,-0.8662499785423279,-0.09624999761581421,-0.11991684138774872,-0.034340329468250275,0.34634312987327576,3.946214437484741,0.0,0.0,3.9462132453918457,-361.3095703125,139.13320922851562,-0.040956027805805206,-0.10259418189525604,0.08621565997600555
1969-12-31T19:13:08.988000,0,0,0,0,-1.6630116701126099,-2.2564315795898438,9.506684303283691,-1.651780605316162,-2.2324254512786865,9.525724411010742,1.4612500667572021,-0.8662499785423279,-0.09624999761581421,-0.11991684138774872,-0.034340329468250275,0.34634312987327576,3.946214437484741,0.0,0.0,3.9462132453918457,-361.3095703125,139.13320922851562,-0.040956027805805206,-0.10259418189525604,0.08621565997600555
1969-12-31T19:13:08.989000,0,0,0,0,-1.6630116701126099,-2.2564315795898438,9.506684303283691,-1.651780605316162,-2.2324254512786865,9.525724411010742,1.4612500667572021,-0.8662499785423279,-0.09624999761581421,-0.11991684138774872,-0.034340329468250275,0.34634312987327576,3.946214437484741,0.0,0.0,3.9462132453918457,-361.3095703125,139.13320922851562,-0.040956027805805206,-0.10259418189525604,0.08621565997600555
1969-12-31T19:13:08.990000,0,0,0,0,-1.6630116701126099,-2.2564315795898438,9.506684303283691,-1.651780605316162,-2.2324254512786865,9.525724411010742,1.4612500667572021,-0.8662499785423279,-0.09624999761581421,-0.11991684138774872,-0.034340329468250275,0.34634312987327576,3.946214437484741,0.0,0.0,3.9462132453918457,-361.3095703125,139.13320922851562,-0.040956027805805206,-0.10259418189525604,0.08621565997600555
1969-12-31T19:13:08.991000,0,0,0,0,-1.6630116701126099,-2.2564315795898438,9.506684303283691,-1.651780605316162,-2.2324254512786865,9.525724411010742,1.4612500667572021,-0.8662499785423279,-0.09624999761581421,-0.11991684138774872,-0.034340329468250275,0.34634312987327576,3.946214437484741,0.0,0.0,3.9462132453918457,-361.3095703125,139.13320922851562,-0.040956027805805206,-0.10259418189525604,0.08621565997600555
1969-12-31T19:13:08.999000,0,0,0,0,-1.636690616607666,-2.2540390491485596,9.521041870117188,-1.6490494012832642,-2.236337423324585,9.524876594543457,2.3712499141693115,-1.1462500095367432,-0.2800000011920929,0.11705513298511505,-0.14011061191558838,0.2867622971534729,3.946214437484741,0.0,0.0,3.9462132453918457,-369.2944030761719,148.67282104492188,-0.038204796612262726,-0.10634066164493561,0.0854087546467781
1969-12-31T19:13:09,0,0,0,0,-1.636690616607666,-2.2540390491485596,9.521041870117188,-1.6490494012832642,-2.236337423324585,9.524876594543457,2.3712499141693115,-1.1462500095367432,-0.2800000011920929,0.11705513298511505,-0.14011061191558838,0.2867622971534729,3.946214437484741,0.0,0.0,3.9462132453918457,-369.2944030761719,148.67282104492188,-0.038204796612262726,-0.10634066164493561,0.0854087546467781
1969-12-31T19:13:09.001000,0,0,0,0,-1.636690616607666,-2.2540390491485596,9.521041870117188,-1.6490494012832642,-2.236337423324585,9.524876594543457,2.3712499141693115,-1.1462500095367432,-0.2800000011920929,0.11705513298511505,-0.14011061191558838,0.2867622971534729,3.946214437484741,0.0,0.0,3.9462132453918457,-369.2944030761719,148.67282104492188,-0.038204796612262726,-0.10634066164493561,0.0854087546467781
1969-12-31T19:13:09.002000,0,0,0,0,-1.636690616607666,-2.2540390491485596,9.521041870117188,-1.6490494012832642,-2.236337423324585,9.524876594543457,2.3712499141693115,-1.1462500095367432,-0.2800000011920929,0.11705513298511505,-0.14011061191558838,0.2867622971534729,3.946214437484741,0.0,0.0,3.9462132453918457,-369.2944030761719,148.67282104492188,-0.038204796612262726,-0.10634066164493561,0.0854087546467781
1969-12-31T19:13:09.003000,0,0,0,0,-1.636690616607666,-2.2540390491485596,9.521041870117188,-1.6490494012832642,-2.236337423324585,9.524876594543457,2.3712499141693115,-1.1462500095367432,-0.2800000011920929,0.11705513298511505,-0.14011061191558838,0.2867622971534729,3.946214437484741,0.0,0.0,3.9462132453918457,-369.2944030761719,148.67282104492188,-0.038204796612262726,-0.10634066164493561,0.0854087546467781
1969-12-31T19:13:09.012000,0,0,0,0,-1.8161523342132568,-2.538784980773926,9.425329208374023,-1.6792945861816406,-2.2910797595977783,9.506858825683594,6.431249618530273,-2.8350000381469727,-1.6624999046325684,0.7176921963691711,-0.39646169543266296,0.1013389378786087,3.946214437484741,0.0,0.0,3.9462132453918457,-376.5196533203125,157.3049774169922,-0.06830250471830368,-0.16125166416168213,0.06737782061100006
1969-12-31T19:13:09.013000,0,0,0,0,-1.8161523342132568,-2.538784980773926,9.425329208374023,-1.6792945861816406,-2.2910797595977783,9.506858825683594,6.431249618530273,-2.8350000381469727,-1.6624999046325684,0.7176921963691711,-0.39646169543266296,0.1013389378786087,3.946214437484741,0.0,0.0,3.9462132453918457,-376.5196533203125,157.3049774169922,-0.06830250471830368,-0.16125166416168213,0.06737782061100006
1969-12-31T19:13:09.014000,0,0,0,0,-1.8161523342132568,-2.538784980773926,9.425329208374023,-1.6792945861816406,-2.2910797595977783,9.506858825683594,6.431249618530273,-2.8350000381469727,-1.6624999046325684,0.7176921963691711,-0.39646169543266296,0.1013389378786087,3.946214437484741,0.0,0.0,3.9462132453918457,-376.5196533203125,157.3049774169922,-0.06830250471830368,-0.16125166416168213,0.06737782061100006
1969-12-31T19:13:09.015000,0,0,0,0,-1.8161523342132568,-2.538784980773926,9.425329208374023,-1.6792945861816406,-2.2910797595977783,9.506858825683594,6.431249618530273,-2.8350000381469727,-1.6624999046325684,0.7176921963691711,-0.39646169543266296,0.1013389378786087,3.946214437484741,0.0,0.0,3.9462132453918457,-376.5196533203125,157.3049774169922,-0.06830250471830368,-0.16125166416168213,0.06737782061100006
1969-12-31T19:13:09.016000,0,0,0,0,-1.8161523342132568,-2.538784980773926,9.425329208374023,-1.6792945861816406,-2.2910797595977783,9.506858825683594,6.431249618530273,-2.8350000381469727,-1.6624999046325684,0.7176921963691711,-0.39646169543266296,0.1013389378786087,3.946214437484741,0.0,0.0,3.9462132453918457,-376.5196533203125,157.3049774169922,-0.06830250471830368,-0.16125166416168213,0.06737782061100006
1969-12-31T19:13:09.025000,0,0,0,0,-3.634697675704956,-3.074777126312256,7.601997375488281,-2.033217668533325,-2.432926893234253,9.162083625793457,-1.4875000715255737,9.625,-12.984999656677246,0.5079234838485718,0.5568287372589111,-1.1434975862503052,3.946214437484741,0.0,0.0,3.9462132453918457,-383.0576171875,165.11599731445312,-0.3914317190647125,-0.2856895327568054,-0.26814335584640503
1969-12-31T19:13:09.027000,0,0,0,0,-3.634697675704956,-3.074777126312256,7.601997375488281,-2.033217668533325,-2.432926893234253,9.162083625793457,-1.4875000715255737,9.625,-12.984999656677246,0.5079234838485718,0.5568287372589111,-1.1434975862503052,3.946214437484741,0.0,0.0,3.9462132453918457,-383.0576171875,165.11599731445312,-0.3914317190647125,-0.2856895327568054,-0.26814335584640503
1969-12-31T19:13:09.028000,0,0,0,0,-3.634697675704956,-3.074777126312256,7.601997375488281,-2.033217668533325,-2.432926893234253,9.162083625793457,-1.4875000715255737,9.625,-12.984999656677246,0.5079234838485718,0.5568287372589111,-1.1434975862503052,3.946214437484741,0.0,0.0,3.9462132453918457,-383.0576171875,165.11599731445312,-0.3914317190647125,-0.2856895327568054,-0.26814335584640503
1969-12-31T19:13:09.029000,0,0,0,0,-3.634697675704956,-3.074777126312256,7.601997375488281,-2.033217668533325,-2.432926893234253,9.162083625793457,-1.4875000715255737,9.625,-12.984999656677246,0.5079234838485718,0.5568287372589111,-1.1434975862503052,3.946214437484741,0.0,0.0,3.9462132453918457,-383.0576171875,165.11599731445312,-0.3914317190647125,-0.2856895327568054,-0.26814335584640503
1969-12-31T19:13:09.037000,0,0,0,0,-0.26560330390930176,-1.277767300605774,10.581061363220215,-1.7132840156555176,-2.223845958709717,9.418914794921875,15.758750915527344,-0.05249999836087227,-20.85125160217285,1.9586567878723145,0.49886640906333923,-3.018195629119873,3.946214437484741,0.0,0.0,3.9462132453918457,-388.9736633300781,172.18399047851562,-0.08820708096027374,-0.0949302390217781,-0.018358178436756134
1969-12-31T19:13:09.038000,0,0,0,0,-0.26560330390930176,-1.277767300605774,10.581061363220215,-1.7132840156555176,-2.223845958709717,9.418914794921875,15.758750915527344,-0.05249999836087227,-20.85125160217285,1.9586567878723145,0.49886640906333923,-3.018195629119873,3.946214437484741,0.0,0.0,3.9462132453918457,-388.9736633300781,172.18399047851562,-0.08820708096027374,-0.0949302390217781,-0.018358178436756134
1969-12-31T19:13:09.039000,0,0,0,0,-0.26560330390930176,-1.277767300605774,10.581061363220215,-1.7132840156555176,-2.223845958709717,9.418914794921875,15.758750915527344,-0.05249999836087227,-20.85125160217285,1.9586567878723145,0.49886640906333923,-3.018195629119873,3.946214437484741,0.0,0.0,3.9462132453918457,-388.9736633300781,172.18399047851562,-0.08820708096027374,-0.0949302390217781,-0.018358178436756134
1969-12-31T19:13:09.040000,0,0,0,0,-0.26560330390930176,-1.277767300605774,10.581061363220215,-1.7132840156555176,-2.223845958709717,9.418914794921875,15.758750915527344,-0.05249999836087227,-20.85125160217285,1.9586567878723145,0.49886640906333923,-3.018195629119873,3.946214437484741,0.0,0.0,3.9462132453918457,-388.9736633300781,172.18399047851562,-0.08820708096027374,-0.0949302390217781,-0.018358178436756134
1969-12-31T19:13:09.041000,0,0,0,0,-0.26560330390930176,-1.277767300605774,10.581061363220215,-1.7132840156555176,-2.223845958709717,9.418914794921875,15.758750915527344,-0.05249999836087227,-20.85125160217285,1.9586567878723145,0.49886640906333923,-3.018195629119873,3.946214437484741,0.0,0.0,3.9462132453918457,-388.9736633300781,172.18399047851562,-0.08820708096027374,-0.0949302390217781,-0.018358178436756134
1969-12-31T19:13:09.049000,0,0,0,0,-0.8398807644844055,-1.6630116701126099,9.664609909057617,-1.555200219154358,-2.1223363876342773,9.463384628295898,12.197500228881836,-4.042500019073486,-4.523749828338623,2.9326257705688477,0.06686940789222717,-3.1614112854003906,3.946214437484741,0.0,0.0,3.9462132453918457,-394.3269348144531,178.57965087890625,0.05884397774934769,-0.0064078387804329395,0.021299470216035843
1969-12-31T19:13:09.068000,0,0,0,0,-2.2683956623077393,-3.084348440170288,9.293723106384277,-1.6842868328094482,-2.2964582443237305,9.432676315307617,13.536250114440918,-5.144999980926514,-2.213749885559082,3.9412944316864014,-0.4289090931415558,-3.0712649822235107,3.946214437484741,0.0,0.0,3.9462132453918457,-399.1709899902344,184.36691284179688,-0.06783626228570938,-0.18124035000801086,-0.009156368672847748
1969-12-31T19:13:09.069000,0,0,0,0,-2.2683956623077393,-3.084348440170288,9.293723106384277,-1.6842868328094482,-2.2964582443237305,9.432676315307617,13.536250114440918,-5.144999980926514,-2.213749885559082,3.9412944316864014,-0.4289090931415558,-3.0712649822235107,3.946214437484741,0.0,0.0,3.9462132453918457,-399.1709899902344,184.36691284179688,-0.06783626228570938,-0.18124035000801086,-0.009156368672847748
1969-12-31T19:13:09.070000,0,0,0,0,-2.2683956623077393,-3.084348440170288,9.293723106384277,-1.6842868328094482,-2.2964582443237305,9.432676315307617,13.536250114440918,-5.144999980926514,-2.213749885559082,3.9412944316864014,-0.4289090931415558,-3.0712649822235107,3.946214437484741,0.0,0.0,3.9462132453918457,-399.1709899902344,184.36691284179688,-0.06783626228570938,-0.18124035000801086,-0.009156368672847748
1969-12-31T19:13:09.071000,0,0,0,0,-2.2683956623077393,-3.084348440170288,9.293723106384277,-1.6842868328094482,-2.2964582443237305,9.432676315307617,13.536250114440918,-5.144999980926514,-2.213749885559082,3.9412944316864014,-0.4289090931415558,-3.0712649822235107,3.946214437484741,0.0,0.0,3.9462132453918457,-399.1709899902344,184.36691284179688,-0.06783626228570938,-0.18124035000801086,-0.009156368672847748
1969-12-31T19:13:09.072000,0,0,0,0,-2.2683956623077393,-3.084348440170288,9.293723106384277,-1.6842868328094482,-2.2964582443237305,9.432676315307617,13.536250114440918,-5.144999980926514,-2.213749885559082,3.9412944316864014,-0.4289090931415558,-3.0712649822235107,3.946214437484741,0.0,0.0,3.9462132453918457,-399.1709899902344,184.36691284179688,-0.06783626228570938,-0.18124035000801086,-0.009156368672847748
1969-12-31T19:13:09.080000,0,0,0,0,-2.6009984016418457,-2.998206853866577,8.946764945983887,-1.8502092361450195,-2.4234728813171387,9.344727516174316,14.419999122619629,-1.8550000190734863,-9.808749198913574,4.938079833984375,-0.5645658373832703,-3.712167501449585,3.946214437484741,0.0,0.0,3.9462132453918457,-403.55426025390625,189.60366821289062,-0.22607098519802094,-0.30858322978019714,-0.09585960954427719
1969-12-31T19:13:09.081000,0,0,0,0,-2.6009984016418457,-2.998206853866577,8.946764945983887,-1.8502092361450195,-2.4234728813171387,9.344727516174316,14.419999122619629,-1.8550000190734863,-9.808749198913574,4.938079833984375,-0.5645658373832703,-3.712167501449585,3.946214437484741,0.0,0.0,3.9462132453918457,-403.55426025390625,189.60366821289062,-0.22607098519802094,-0.30858322978019714,-0.09585960954427719
1969-12-31T19:13:09.082000,0,0,0,0,-2.6009984016418457,-2.998206853866577,8.946764945983887,-1.8502092361450195,-2.4234728813171387,9.344727516174316,14.419999122619629,-1.8550000190734863,-9.808749198913574,4.938079833984375,-0.5645658373832703,-3.712167501449585,3.946214437484741,0.0,0.0,3.9462132453918457,-403.55426025390625,189.60366821289062,-0.22607098519802094,-0.30858322978019714,-0.09585960954427719
1969-12-31T19:13:09.083000,0,0,0,0,-2.6009984016418457,-2.998206853866577,8.946764945983887,-1.8502092361450195,-2.4234728813171387,9.344727516174316,14.419999122619629,-1.8550000190734863,-9.808749198913574,4.938079833984375,-0.5645658373832703,-3.712167501449585,3.946214437484741,0.0,0.0,3.9462132453918457,-403.55426025390625,189.60366821289062,-0.22607098519802094,-0.30858322978019714,-0.09585960954427719
1969-12-31T19:13:09.084000,0,0,0,0,-2.6009984016418457,-2.998206853866577,8.946764945983887,-1.8502092361450195,-2.4234728813171387,9.344727516174316,14.419999122619629,-1.8550000190734863,-9.808749198913574,4.938079833984375,-0.5645658373832703,-3.712167501449585,3.946214437484741,0.0,0.0,3.9462132453918457,-403.55426025390625,189.60366821289062,-0.22607098519802094,-0.30858322978019714,-0.09585960954427719
1969-12-31T19:13:09.092000,0,0,0,0,-0.6077769994735718,-1.1389836072921753,10.310672760009766,-1.6253321170806885,-2.190983533859253,9.519560813903809,26.075000762939453,-7.481250286102295,-14.988749504089355,6.948727130889893,-1.2225147485733032,-4.78485107421875,3.946214437484741,0.0,0.0,3.9462132453918457,-407.52056884765625,194.34228515625,-0.019478339701890945,-0.10459743440151215,0.06950805336236954
1969-12-31T19:13:09.093000,0,0,0,0,-0.6077769994735718,-1.1389836072921753,10.310672760009766,-1.6253321170806885,-2.190983533859253,9.519560813903809,26.075000762939453,-7.481250286102295,-14.988749504089355,6.948727130889893,-1.2225147485733032,-4.78485107421875,3.946214437484741,0.0,0.0,3.9462132453918457,-407.52056884765625,194.34228515625,-0.019478339701890945,-0.10459743440151215,0.06950805336236954
1969-12-31T19:13:09.094000,0,0,0,0,-0.6077769994735718,-1.1389836072921753,10.310672760009766,-1.6253321170806885,-2.190983533859253,9.519560813903809,26.075000762939453,-7.481250286102295,-14.988749504089355,6.948727130889893,-1.2225147485733032,-4.78485107421875,3.946214437484741,0.0,0.0,3.9462132453918457,-407.52056884765625,194.34228515625,-0.019478339701890945,-0.10459743440151215,0.06950805336236954
1969-12-31T19:13:09.095000,0,0,0,0,-0.6077769994735718,-1.1389836072921753,10.310672760009766,-1.6253321170806885,-2.190983533859253,9.519560813903809,26.075000762939453,-7.481250286102295,-14.988749504089355,6.948727130889893,-1.2225147485733032,-4.78485107421875,3.946214437484741,0.0,0.0,3.9462132453918457,-407.52056884765625,194.34228515625,-0.019478339701890945,-0.10459743440151215,0.06950805336236954
1969-12-31T19:13:09.096000,0,0,0,0,-0.6077769994735718,-1.1389836072921753,10.310672760009766,-1.6253321170806885,-2.190983533859253,9.519560813903809,26.075000762939453,-7.481250286102295,-14.988749504089355,6.948727130889893,-1.2225147485733032,-4.78485107421875,3.946214437484741,0.0,0.0,3.9462132453918457,-407.52056884765625,194.34228515625,-0.019478339701890945,-0.10459743440151215,0.06950805336236954
1969-12-31T19:13:09.104000,0,0,0,0,-0.5359923243522644,-0.7202396392822266,10.384849548339844,-1.4281643629074097,-1.924782633781433,9.676176071166992,9.764999389648438,-3.4912497997283936,-2.9312498569488525,7.216624736785889,-1.4383279085159302,-4.608527660369873,3.946214437484741,0.0,0.0,3.9462132453918457,-411.10955810546875,198.63014221191406,0.16447465121746063,0.14123225212097168,0.21941398084163666
1969-12-31T19:13:09.105000,0,0,0,0,-0.5359923243522644,-0.7202396392822266,10.384849548339844,-1.4281643629074097,-1.924782633781433,9.676176071166992,9.764999389648438,-3.4912497997283936,-2.9312498569488525,7.216624736785889,-1.4383279085159302,-4.608527660369873,3.946214437484741,0.0,0.0,3.9462132453918457,-411.10955810546875,198.63014221191406,0.16447465121746063,0.14123225212097168,0.21941398084163666
1969-12-31T19:13:09.106000,0,0,0,0,-0.5359923243522644,-0.7202396392822266,10.384849548339844,-1.4281643629074097,-1.924782633781433,9.676176071166992,9.764999389648438,-3.4912497997283936,-2.9312498569488525,7.216624736785889,-1.4383279085159302,-4.608527660369873,3.946214437484741,0.0,0.0,3.9462132453918457,-411.10955810546875,198.63014221191406,0.16447465121746063,0.14123225212097168,0.21941398084163666
1969-12-31T19:13:09.107000,0,0,0,0,-0.5359923243522644,-0.7202396392822266,10.384849548339844,-1.4281643629074097,-1.924782633781433,9.676176071166992,9.764999389648438,-3.4912497997283936,-2.9312498569488525,7.216624736785889,-1.4383279085159302,-4.608527660369873,3.946214437484741,0.0,0.0,3.9462132453918457,-411.10955810546875,198.63014221191406,0.16447465121746063,0.14123225212097168,0.21941398084163666
1969-12-31T19:13:09.108000,0,0,0,0,-0.5359923243522644,-0.7202396392822266,10.384849548339844,-1.4281643629074097,-1.924782633781433,9.676176071166992,9.764999389648438,-3.4912497997283936,-2.9312498569488525,7.216624736785889,-1.4383279085159302,-4.608527660369873,3.946214437484741,0.0,0.0,3.9462132453918457,-411.10955810546875,198.63014221191406,0.16447465121746063,0.14123225212097168,0.21941398084163666
1969-12-31T19:13:09.116000,0,0,0,0,-1.648654818534851,-2.0650060176849365,9.336793899536133,-1.468072533607483,-1.9501627683639526,9.61474895477295,-1.0412499904632568,1.7850000858306885,0.9099999666213989,6.431095123291016,-1.131709098815918,-4.083578109741211,3.946214437484741,0.0,0.0,3.9462132453918457,-414.3571472167969,202.51011657714844,0.12788599729537964,0.1178131252527237,0.1589752435684204
1969-12-31T19:13:09.117000,0,0,0,0,-1.648654818534851,-2.0650060176849365,9.336793899536133,-1.468072533607483,-1.9501627683639526,9.61474895477295,-1.0412499904632568,1.7850000858306885,0.9099999666213989,6.431095123291016,-1.131709098815918,-4.083578109741211,3.946214437484741,0.0,0.0,3.9462132453918457,-414.3571472167969,202.51011657714844,0.12788599729537964,0.1178131252527237,0.1589752435684204
1969-12-31T19:13:09.118000,0,0,0,0,-1.648654818534851,-2.0650060176849365,9.336793899536133,-1.468072533607483,-1.9501627683639526,9.61474895477295,-1.0412499904632568,1.7850000858306885,0.9099999666213989,6.431095123291016,-1.131709098815918,-4.083578109741211,3.946214437484741,0.0,0.0,3.9462132453918457,-414.3571472167969,202.51011657714844,0.12788599729537964,0.1178131252527237,0.1589752435684204
1969-12-31T19:13:09.119000,0,0,0,0,-1.648654818534851,-2.0650060176849365,9.336793899536133,-1.468072533607483,-1.9501627683639526,9.61474895477295,-1.0412499904632568,1.7850000858306885,0.9099999666213989,6.431095123291016,-1.131709098815918,-4.083578109741211,3.946214437484741,0.0,0.0,3.9462132453918457,-414.3571472167969,202.51011657714844,0.12788599729537964,0.1178131252527237,0.1589752435684204
1969-12-31T19:13:09.120000,0,0,0,0,-1.648654818534851,-2.0650060176849365,9.336793899536133,-1.468072533607483,-1.9501627683639526,9.61474895477295,-1.0412499904632568,1.7850000858306885,0.9099999666213989,6.431095123291016,-1.131709098815918,-4.083578109741211,3.946214437484741,0.0,0.0,3.9462132453918457,-414.3571472167969,202.51011657714844,0.12788599729537964,0.1178131252527237,0.1589752435684204
1969-12-31T19:13:09.139000,0,0,0,0,-1.3854442834854126,-1.7515461444854736,10.243674278259277,-1.4531170129776,-1.9142136573791504,9.728582382202148,9.31874942779541,-3.797499895095825,0.20999999344348907,6.705782890319824,-1.3852921724319458,-3.675151824951172,3.946214437484741,0.0,0.0,3.9462132453918457,-398.43212890625,137.69985961914062,0.13771049678325653,0.14279255270957947,0.269551545381546
1969-12-31T19:13:09.151000,0,0,0,0,-1.6199408769607544,-2.0099711418151855,9.425329208374023,-1.483311653137207,-1.9315454959869385,9.673694610595703,-0.4987499713897705,1.8024998903274536,0.6212499737739563,6.020452499389648,-1.082053780555725,-3.2664570808410645,3.946214437484741,0.0,0.0,3.9462132453918457,-402.88568115234375,147.3758087158203,0.11040756106376648,0.12640783190727234,0.21535724401474
1969-12-31T19:13:09.152000,0,0,0,0,-1.6199408769607544,-2.0099711418151855,9.425329208374023,-1.483311653137207,-1.9315454959869385,9.673694610595703,-0.4987499713897705,1.8024998903274536,0.6212499737739563,6.020452499389648,-1.082053780555725,-3.2664570808410645,3.946214437484741,0.0,0.0,3.9462132453918457,-402.88568115234375,147.3758087158203,0.11040756106376648,0.12640783190727234,0.21535724401474
1969-12-31T19:13:09.153000,0,0,0,0,-1.6199408769607544,-2.0099711418151855,9.425329208374023,-1.483311653137207,-1.9315454959869385,9.673694610595703,-0.4987499713897705,1.8024998903274536,0.6212499737739563,6.020452499389648,-1.082053780555725,-3.2664570808410645,3.946214437484741,0.0,0.0,3.9462132453918457,-402.88568115234375,147.3758087158203,0.11040756106376648,0.12640783190727234,0.21535724401474
1969-12-31T19:13:09.154000,0,0,0,0,-1.6199408769607544,-2.0099711418151855,9.425329208374023,-1.483311653137207,-1.9315454959869385,9.673694610595703,-0.4987499713897705,1.8024998903274536,0.6212499737739563,6.020452499389648,-1.082053780555725,-3.2664570808410645,3.946214437484741,0.0,0.0,3.9462132453918457,-402.88568115234375,147.3758087158203,0.11040756106376648,0.12640783190727234,0.21535724401474
1969-12-31T19:13:09.155000,0,0,0,0,-1.6199408769607544,-2.0099711418151855,9.425329208374023,-1.483311653137207,-1.9315454959869385,9.673694610595703,-0.4987499713897705,1.8024998903274536,0.6212499737739563,6.020452499389648,-1.082053780555725,-3.2664570808410645,3.946214437484741,0.0,0.0,3.9462132453918457,-402.88568115234375,147.3758087158203,0.11040756106376648,0.12640783190727234,0.21535724401474
1969-12-31T19:13:09.163000,0,0,0,0,-1.0408778190612793,-3.266202926635742,9.121438980102539,-1.403232216835022,-2.1731150150299072,9.573738098144531,6.868749618530273,-2.2312498092651367,-0.04374999925494194,6.101146697998047,-1.191370964050293,-2.959897518157959,3.946214437484741,0.0,0.0,3.9462132453918457,-406.91558837890625,156.13134765625,0.18426983058452606,-0.10729590803384781,0.11606977880001068
1969-12-31T19:13:09.164000,0,0,0,0,-1.0408778190612793,-3.266202926635742,9.121438980102539,-1.403232216835022,-2.1731150150299072,9.573738098144531,6.868749618530273,-2.2312498092651367,-0.04374999925494194,6.101146697998047,-1.191370964050293,-2.959897518157959,3.946214437484741,0.0,0.0,3.9462132453918457,-406.91558837890625,156.13134765625,0.18426983058452606,-0.10729590803384781,0.11606977880001068
1969-12-31T19:13:09.165000,0,0,0,0,-1.0408778190612793,-3.266202926635742,9.121438980102539,-1.403232216835022,-2.1731150150299072,9.573738098144531,6.868749618530273,-2.2312498092651367,-0.04374999925494194,6.101146697998047,-1.191370964050293,-2.959897518157959,3.946214437484741,0.0,0.0,3.9462132453918457,-406.91558837890625,156.13134765625,0.18426983058452606,-0.10729590803384781,0.11606977880001068
1969-12-31T19:13:09.166000,0,0,0,0,-1.0408778190612793,-3.266202926635742,9.121438980102539,-1.403232216835022,-2.1731150150299072,9.573738098144531,6.868749618530273,-2.2312498092651367,-0.04374999925494194,6.101146697998047,-1.191370964050293,-2.959897518157959,3.946214437484741,0.0,0.0,3.9462132453918457,-406.91558837890625,156.13134765625,0.18426983058452606,-0.10729590803384781,0.11606977880001068
1969-12-31T19:13:09.167000,0,0,0,0,-1.0408778190612793,-3.266202926635742,9.121438980102539,-1.403232216835022,-2.1731150150299072,9.573738098144531,6.868749618530273,-2.2312498092651367,-0.04374999925494194,6.101146697998047,-1.191370964050293,-2.959897518157959,3.946214437484741,0.0,0.0,3.9462132453918457,-406.91558837890625,156.13134765625,0.18426983058452606,-0.10729590803384781,0.11606977880001068
1969-12-31T19:13:09.175000,0,0,0,0,-1.2203396558761597,-2.163111925125122,9.245866775512695,-1.370129108428955,-2.17130446434021,9.51439380645752,22.408750534057617,-19.25874900817871,7.349999904632568,7.652405738830566,-2.9100284576416016,-1.9791696071624756,3.946214437484741,0.0,0.0,3.9462132453918457,-410.5621337890625,164.05401611328125,0.2003643959760666,-0.12244976311922073,0.05019741132855415
1969-12-31T19:13:09.176000,0,0,0,0,-1.2203396558761597,-2.163111925125122,9.245866775512695,-1.370129108428955,-2.17130446434021,9.51439380645752,22.408750534057617,-19.25874900817871,7.349999904632568,7.652405738830566,-2.9100284576416016,-1.9791696071624756,3.946214437484741,0.0,0.0,3.9462132453918457,-410.5621337890625,164.05401611328125,0.2003643959760666,-0.12244976311922073,0.05019741132855415
1969-12-31T19:13:09.177000,0,0,0,0,-1.2203396558761597,-2.163111925125122,9.245866775512695,-1.370129108428955,-2.17130446434021,9.51439380645752,22.408750534057617,-19.25874900817871,7.349999904632568,7.652405738830566,-2.9100284576416016,-1.9791696071624756,3.946214437484741,0.0,0.0,3.9462132453918457,-410.5621337890625,164.05401611328125,0.2003643959760666,-0.12244976311922073,0.05019741132855415
1969-12-31T19:13:09.178000,0,0,0,0,-1.2203396558761597,-2.163111925125122,9.245866775512695,-1.370129108428955,-2.17130446434021,9.51439380645752,22.408750534057617,-19.25874900817871,7.349999904632568,7.652405738830566,-2.9100284576416016,-1.9791696071624756,3.946214437484741,0.0,0.0,3.9462132453918457,-410.5621337890625,164.05401611328125,0.2003643959760666,-0.12244976311922073,0.05019741132855415
1969-12-31T19:13:09.179000,0,0,0,0,-1.2203396558761597,-2.163111925125122,9.245866775512695,-1.370129108428955,-2.17130446434021,9.51439380645752,22.408750534057617,-19.25874900817871,7.349999904632568,7.652405738830566,-2.9100284576416016,-1.9791696071624756,3.946214437484741,0.0,0.0,3.9462132453918457,-410.5621337890625,164.05401611328125,0.2003643959760666,-0.12244976311922073,0.05019741132855415
1969-12-31T19:13:09.187000,0,0,0,0,-1.5098711252212524,-1.7754744291305542,9.80817985534668,-1.395422101020813,-2.0996601581573486,9.5675687789917,27.85124969482422,-23.012500762939453,8.2162504196167,9.57381820678711,-4.822274208068848,-1.0093313455581665,3.946214437484741,0.0,0.0,3.9462132453918457,-413.86181640625,171.22303771972656,0.15744324028491974,-0.07709285616874695,0.09481260180473328
1969-12-31T19:13:09.188000,0,0,0,0,-1.5098711252212524,-1.7754744291305542,9.80817985534668,-1.395422101020813,-2.0996601581573486,9.5675687789917,27.85124969482422,-23.012500762939453,8.2162504196167,9.57381820678711,-4.822274208068848,-1.0093313455581665,3.946214437484741,0.0,0.0,3.9462132453918457,-413.86181640625,171.22303771972656,0.15744324028491974,-0.07709285616874695,0.09481260180473328
1969-12-31T19:13:09.189000,0,0,0,0,-1.5098711252212524,-1.7754744291305542,9.80817985534668,-1.395422101020813,-2.0996601581573486,9.5675687789917,27.85124969482422,-23.012500762939453,8.2162504196167,9.57381820678711,-4.822274208068848,-1.0093313455581665,3.946214437484741,0.0,0.0,3.9462132453918457,-413.86181640625,171.22303771972656,0.15744324028491974,-0.07709285616874695,0.09481260180473328
1969-12-31T19:13:09.190000,0,0,0,0,-1.5098711252212524,-1.7754744291305542,9.80817985534668,-1.395422101020813,-2.0996601581573486,9.5675687789917,27.85124969482422,-23.012500762939453,8.2162504196167,9.57381820678711,-4.822274208068848,-1.0093313455581665,3.946214437484741,0.0,0.0,3.9462132453918457,-413.86181640625,171.22303771972656,0.15744324028491974,-0.07709285616874695,0.09481260180473328
1969-12-31T19:13:09.191000,0,0,0,0,-1.5098711252212524,-1.7754744291305542,9.80817985534668,-1.395422101020813,-2.0996601581573486,9.5675687789917,27.85124969482422,-23.012500762939453,8.2162504196167,9.57381820678711,-4.822274208068848,-1.0093313455581665,3.946214437484741,0.0,0.0,3.9462132453918457,-413.86181640625,171.22303771972656,0.15744324028491974,-0.07709285616874695,0.09481260180473328
1969-12-31T19:13:09.199000,0,0,0,0,-1.8975083827972412,-0.7920243144035339,10.29631519317627,-1.4862984418869019,-1.8629814386367798,9.699469566345215,17.097497940063477,-15.531249046325684,7.236249923706055,10.289507865905762,-5.840964317321777,-0.22497129440307617,3.946214437484741,0.0,0.0,3.9462132453918457,-416.84759521484375,177.71009826660156,0.05826033651828766,0.13287749886512756,0.21969352662563324
1969-12-31T19:13:09.200000,0,0,0,0,-1.8975083827972412,-0.7920243144035339,10.29631519317627,-1.4862984418869019,-1.8629814386367798,9.699469566345215,17.097497940063477,-15.531249046325684,7.236249923706055,10.289507865905762,-5.840964317321777,-0.22497129440307617,3.946214437484741,0.0,0.0,3.9462132453918457,-416.84759521484375,177.71009826660156,0.05826033651828766,0.13287749886512756,0.21969352662563324
1969-12-31T19:13:09.201000,0,0,0,0,-1.8975083827972412,-0.7920243144035339,10.29631519317627,-1.4862984418869019,-1.8629814386367798,9.699469566345215,17.097497940063477,-15.531249046325684,7.236249923706055,10.289507865905762,-5.840964317321777,-0.22497129440307617,3.946214437484741,0.0,0.0,3.9462132453918457,-416.84759521484375,177.71009826660156,0.05826033651828766,0.13287749886512756,0.21969352662563324
1969-12-31T19:13:09.202000,0,0,0,0,-1.8975083827972412,-0.7920243144035339,10.29631519317627,-1.4862984418869019,-1.8629814386367798,9.699469566345215,17.097497940063477,-15.531249046325684,7.236249923706055,10.289507865905762,-5.840964317321777,-0.22497129440307617,3.946214437484741,0.0,0.0,3.9462132453918457,-416.84759521484375,177.71009826660156,0.05826033651828766,0.13287749886512756,0.21969352662563324
1969-12-31T19:13:09.222000,0,0,0,0,-1.7874386310577393,-2.0410778522491455,9.69093132019043,-1.5408040285110474,-1.895216464996338,9.697924613952637,1.6712501049041748,-0.3149999976158142,-1.1725000143051147,9.469696998596191,-5.3153076171875,-0.3151048719882965,3.946214437484741,0.0,0.0,3.9462132453918457,-419.54937744140625,183.580078125,0.006207166239619255,0.10043595731258392,0.21850505471229553
1969-12-31T19:13:09.223000,0,0,0,0,-1.7874386310577393,-2.0410778522491455,9.69093132019043,-1.5408040285110474,-1.895216464996338,9.697924613952637,1.6712501049041748,-0.3149999976158142,-1.1725000143051147,9.469696998596191,-5.3153076171875,-0.3151048719882965,3.946214437484741,0.0,0.0,3.9462132453918457,-419.54937744140625,183.580078125,0.006207166239619255,0.10043595731258392,0.21850505471229553
1969-12-31T19:13:09.224000,0,0,0,0,-1.7874386310577393,-2.0410778522491455,9.69093132019043,-1.5408040285110474,-1.895216464996338,9.697924613952637,1.6712501049041748,-0.3149999976158142,-1.1725000143051147,9.469696998596191,-5.3153076171875,-0.3151048719882965,3.946214437484741,0.0,0.0,3.9462132453918457,-419.54937744140625,183.580078125,0.006207166239619255,0.10043595731258392,0.21850505471229553
1969-12-31T19:13:09.225000,0,0,0,0,-1.7874386310577393,-2.0410778522491455,9.69093132019043,-1.5408040285110474,-1.895216464996338,9.697924613952637,1.6712501049041748,-0.3149999976158142,-1.1725000143051147,9.469696998596191,-5.3153076171875,-0.3151048719882965,3.946214437484741,0.0,0.0,3.9462132453918457,-419.54937744140625,183.580078125,0.006207166239619255,0.10043595731258392,0.21850505471229553
1969-12-31T19:13:09.226000,0,0,0,0,-1.7874386310577393,-2.0410778522491455,9.69093132019043,-1.5408040285110474,-1.895216464996338,9.697924613952637,1.6712501049041748,-0.3149999976158142,-1.1725000143051147,9.469696998596191,-5.3153076171875,-0.3151048719882965,3.946214437484741,0.0,0.0,3.9462132453918457,-419.54937744140625,183.580078125,0.006207166239619255,0.10043595731258392,0.21850505471229553
1969-12-31T19:13:09.234000,0,0,0,0,-1.521835207939148,-1.6654046773910522,9.844072341918945,-1.5373706817626953,-1.8536211252212524,9.724376678466797,1.4262498617172241,-0.23624999821186066,-3.6399998664855957,8.704565048217773,-4.832162857055664,-0.6313851475715637,3.946214437484741,0.0,0.0,3.9462132453918457,-421.994140625,188.8916778564453,0.009071090258657932,0.13865165412425995,0.2441534698009491
1969-12-31T19:13:09.235000,0,0,0,0,-1.521835207939148,-1.6654046773910522,9.844072341918945,-1.5373706817626953,-1.8536211252212524,9.724376678466797,1.4262498617172241,-0.23624999821186066,-3.6399998664855957,8.704565048217773,-4.832162857055664,-0.6313851475715637,3.946214437484741,0.0,0.0,3.9462132453918457,-421.994140625,188.8916778564453,0.009071090258657932,0.13865165412425995,0.2441534698009491
1969-12-31T19:13:09.236000,0,0,0,0,-1.521835207939148,-1.6654046773910522,9.844072341918945,-1.5373706817626953,-1.8536211252212524,9.724376678466797,1.4262498617172241,-0.23624999821186066,-3.6399998664855957,8.704565048217773,-4.832162857055664,-0.6313851475715637,3.946214437484741,0.0,0.0,3.9462132453918457,-421.994140625,188.8916778564453,0.009071090258657932,0.13865165412425995,0.2441534698009491
1969-12-31T19:13:09.237000,0,0,0,0,-1.521835207939148,-1.6654046773910522,9.844072341918945,-1.5373706817626953,-1.8536211252212524,9.724376678466797,1.4262498617172241,-0.23624999821186066,-3.6399998664855957,8.704565048217773,-4.832162857055664,-0.6313851475715637,3.946214437484741,0.0,0.0,3.9462132453918457,-421.994140625,188.8916778564453,0.009071090258657932,0.13865165412425995,0.2441534698009491
1969-12-31T19:13:09.238000,0,0,0,0,-1.521835207939148,-1.6654046773910522,9.844072341918945,-1.5373706817626953,-1.8536211252212524,9.724376678466797,1.4262498617172241,-0.23624999821186066,-3.6399998664855957,8.704565048217773,-4.832162857055664,-0.6313851475715637,3.946214437484741,0.0,0.0,3.9462132453918457,-421.994140625,188.8916778564453,0.009071090258657932,0.13865165412425995,0.2441534698009491
1969-12-31T19:13:09.246000,0,0,0,0,-1.31365966796875,-1.794616937637329,9.477971076965332,-1.4968795776367188,-1.8429415225982666,9.679778099060059,-2.0737497806549072,4.068749904632568,-5.748749732971191,7.67927885055542,-3.985464572906494,-1.1181738376617432,3.946214437484741,0.0,0.0,3.9462132453918457,-424.20635986328125,193.69801330566406,0.05064176023006439,0.15106146037578583,0.20009522140026093
1969-12-31T19:13:09.247000,0,0,0,0,-1.31365966796875,-1.794616937637329,9.477971076965332,-1.4968795776367188,-1.8429415225982666,9.679778099060059,-2.0737497806549072,4.068749904632568,-5.748749732971191,7.67927885055542,-3.985464572906494,-1.1181738376617432,3.946214437484741,0.0,0.0,3.9462132453918457,-424.20635986328125,193.69801330566406,0.05064176023006439,0.15106146037578583,0.20009522140026093
1969-12-31T19:13:09.248000,0,0,0,0,-1.31365966796875,-1.794616937637329,9.477971076965332,-1.4968795776367188,-1.8429415225982666,9.679778099060059,-2.0737497806549072,4.068749904632568,-5.748749732971191,7.67927885055542,-3.985464572906494,-1.1181738376617432,3.946214437484741,0.0,0.0,3.9462132453918457,-424.20635986328125,193.69801330566406,0.05064176023006439,0.15106146037578583,0.20009522140026093
1969-12-31T19:13:09.249000,0,0,0,0,-1.31365966796875,-1.794616937637329,9.477971076965332,-1.4968795776367188,-1.8429415225982666,9.679778099060059,-2.0737497806549072,4.068749904632568,-5.748749732971191,7.67927885055542,-3.985464572906494,-1.1181738376617432,3.946214437484741,0.0,0.0,3.9462132453918457,-424.20635986328125,193.69801330566406,0.05064176023006439,0.15106146037578583,0.20009522140026093
1969-12-31T19:13:09.250000,0,0,0,0,-1.31365966796875,-1.794616937637329,9.477971076965332,-1.4968795776367188,-1.8429415225982666,9.679778099060059,-2.0737497806549072,4.068749904632568,-5.748749732971191,7.67927885055542,-3.985464572906494,-1.1181738376617432,3.946214437484741,0.0,0.0,3.9462132453918457,-424.20635986328125,193.69801330566406,0.05064176023006439,0.15106146037578583,0.20009522140026093
1969-12-31T19:13:09.258000,0,0,0,0,-1.136590838432312,-1.758724570274353,9.753145217895508,-1.4316682815551758,-1.8276984691619873,9.6930570602417,2.7124998569488525,-1.3562499284744263,-4.480000019073486,7.206814765930176,-3.735360860824585,-1.4379671812057495,3.946214437484741,0.0,0.0,3.9462132453918457,-426.2081298828125,198.04714965820312,0.11060568690299988,0.16310711205005646,0.21184702217578888
1969-12-31T19:13:09.259000,0,0,0,0,-1.136590838432312,-1.758724570274353,9.753145217895508,-1.4316682815551758,-1.8276984691619873,9.6930570602417,2.7124998569488525,-1.3562499284744263,-4.480000019073486,7.206814765930176,-3.735360860824585,-1.4379671812057495,3.946214437484741,0.0,0.0,3.9462132453918457,-426.2081298828125,198.04714965820312,0.11060568690299988,0.16310711205005646,0.21184702217578888
1969-12-31T19:13:09.260000,0,0,0,0,-1.136590838432312,-1.758724570274353,9.753145217895508,-1.4316682815551758,-1.8276984691619873,9.6930570602417,2.7124998569488525,-1.3562499284744263,-4.480000019073486,7.206814765930176,-3.735360860824585,-1.4379671812057495,3.946214437484741,0.0,0.0,3.9462132453918457,-426.2081298828125,198.04714965820312,0.11060568690299988,0.16310711205005646,0.21184702217578888
1969-12-31T19:13:09.261000,0,0,0,0,-1.136590838432312,-1.758724570274353,9.753145217895508,-1.4316682815551758,-1.8276984691619873,9.6930570602417,2.7124998569488525,-1.3562499284744263,-4.480000019073486,7.206814765930176,-3.735360860824585,-1.4379671812057495,3.946214437484741,0.0,0.0,3.9462132453918457,-426.2081298828125,198.04714965820312,0.11060568690299988,0.16310711205005646,0.21184702217578888
1969-12-31T19:13:09.262000,0,0,0,0,-1.136590838432312,-1.758724570274353,9.753145217895508,-1.4316682815551758,-1.8276984691619873,9.6930570602417,2.7124998569488525,-1.3562499284744263,-4.480000019073486,7.206814765930176,-3.735360860824585,-1.4379671812057495,3.946214437484741,0.0,0.0,3.9462132453918457,-426.2081298828125,198.04714965820312,0.11060568690299988,0.16310711205005646,0.21184702217578888
1969-12-31T19:13:09.270000,0,0,0,0,-1.3280166387557983,-1.7970099449157715,9.68375301361084,-1.412907600402832,-1.8221439123153687,9.691372871398926,-0.5425000190734863,0.7699999809265137,-0.9275000095367432,6.469662189483643,-3.306788921356201,-1.389409065246582,3.946214437484741,0.0,0.0,3.9462132453918457,-428.01947021484375,201.98257446289062,0.1284656822681427,0.16813167929649353,0.20990492403507233
1969-12-31T19:13:09.271000,0,0,0,0,-1.3280166387557983,-1.7970099449157715,9.68375301361084,-1.412907600402832,-1.8221439123153687,9.691372871398926,-0.5425000190734863,0.7699999809265137,-0.9275000095367432,6.469662189483643,-3.306788921356201,-1.389409065246582,3.946214437484741,0.0,0.0,3.9462132453918457,-428.01947021484375,201.98257446289062,0.1284656822681427,0.16813167929649353,0.20990492403507233
1969-12-31T19:13:09.272000,0,0,0,0,-1.3280166387557983,-1.7970099449157715,9.68375301361084,-1.412907600402832,-1.8221439123153687,9.691372871398926,-0.5425000190734863,0.7699999809265137,-0.9275000095367432,6.469662189483643,-3.306788921356201,-1.389409065246582,3.946214437484741,0.0,0.0,3.9462132453918457,-428.01947021484375,201.98257446289062,0.1284656822681427,0.16813167929649353,0.20990492403507233
1969-12-31T19:13:09.273000,0,0,0,0,-1.3280166387557983,-1.7970099449157715,9.68375301361084,-1.412907600402832,-1.8221439123153687,9.691372871398926,-0.5425000190734863,0.7699999809265137,-0.9275000095367432,6.469662189483643,-3.306788921356201,-1.389409065246582,3.946214437484741,0.0,0.0,3.9462132453918457,-428.01947021484375,201.98257446289062,0.1284656822681427,0.16813167929649353,0.20990492403507233
1969-12-31T19:13:09.274000,0,0,0,0,-1.3280166387557983,-1.7970099449157715,9.68375301361084,-1.412907600402832,-1.8221439123153687,9.691372871398926,-0.5425000190734863,0.7699999809265137,-0.9275000095367432,6.469662189483643,-3.306788921356201,-1.389409065246582,3.946214437484741,0.0,0.0,3.9462132453918457,-428.01947021484375,201.98257446289062,0.1284656822681427,0.16813167929649353,0.20990492403507233
1969-12-31T19:13:09.293000,0,0,0,0,-1.3806586265563965,-1.808974027633667,9.757930755615234,-1.4070706367492676,-1.8197602033615112,9.70341968536377,-1.5575000047683716,3.4912497997283936,0.9099999666213989,5.706079006195068,-2.660126209259033,-1.1706780195236206,3.946214437484741,0.0,0.0,3.9462132453918457,-429.65850830078125,205.54364013671875,0.13638760149478912,0.17055287957191467,0.22229856252670288
1969-12-31T19:13:09.294000,0,0,0,0,-1.3806586265563965,-1.808974027633667,9.757930755615234,-1.4070706367492676,-1.8197602033615112,9.70341968536377,-1.5575000047683716,3.4912497997283936,0.9099999666213989,5.706079006195068,-2.660126209259033,-1.1706780195236206,3.946214437484741,0.0,0.0,3.9462132453918457,-429.65850830078125,205.54364013671875,0.13638760149478912,0.17055287957191467,0.22229856252670288
1969-12-31T19:13:09.295000,0,0,0,0,-1.3806586265563965,-1.808974027633667,9.757930755615234,-1.4070706367492676,-1.8197602033615112,9.70341968536377,-1.5575000047683716,3.4912497997283936,0.9099999666213989,5.706079006195068,-2.660126209259033,-1.1706780195236206,3.946214437484741,0.0,0.0,3.9462132453918457,-429.65850830078125,205.54364013671875,0.13638760149478912,0.17055287957191467,0.22229856252670288
1969-12-31T19:13:09.296000,0,0,0,0,-1.3806586265563965,-1.808974027633667,9.757930755615234,-1.4070706367492676,-1.8197602033615112,9.70341968536377,-1.5575000047683716,3.4912497997283936,0.9099999666213989,5.706079006195068,-2.660126209259033,-1.1706780195236206,3.946214437484741,0.0,0.0,3.9462132453918457,-429.65850830078125,205.54364013671875,0.13638760149478912,0.17055287957191467,0.22229856252670288
1969-12-31T19:13:09.297000,0,0,0,0,-1.3806586265563965,-1.808974027633667,9.757930755615234,-1.4070706367492676,-1.8197602033615112,9.70341968536377,-1.5575000047683716,3.4912497997283936,0.9099999666213989,5.706079006195068,-2.660126209259033,-1.1706780195236206,3.946214437484741,0.0,0.0,3.9462132453918457,-429.65850830078125,205.54364013671875,0.13638760149478912,0.17055287957191467,0.22229856252670288
1969-12-31T19:13:09.305000,0,0,0,0,-1.4452649354934692,-1.8185453414916992,9.54496955871582,-1.413983702659607,-1.81954026222229,9.6747407913208,-1.4612500667572021,4.567500114440918,0.8575000166893005,5.024287700653076,-1.9725990295410156,-0.9777477979660034,3.946214437484741,0.0,0.0,3.9462132453918457,-431.1416320800781,208.76596069335938,0.13333049416542053,0.17118193209171295,0.1943337470293045
1969-12-31T19:13:09.306000,0,0,0,0,-1.4452649354934692,-1.8185453414916992,9.54496955871582,-1.413983702659607,-1.81954026222229,9.6747407913208,-1.4612500667572021,4.567500114440918,0.8575000166893005,5.024287700653076,-1.9725990295410156,-0.9777477979660034,3.946214437484741,0.0,0.0,3.9462132453918457,-431.1416320800781,208.76596069335938,0.13333049416542053,0.17118193209171295,0.1943337470293045
1969-12-31T19:13:09.307000,0,0,0,0,-1.4452649354934692,-1.8185453414916992,9.54496955871582,-1.413983702659607,-1.81954026222229,9.6747407913208,-1.4612500667572021,4.567500114440918,0.8575000166893005,5.024287700653076,-1.9725990295410156,-0.9777477979660034,3.946214437484741,0.0,0.0,3.9462132453918457,-431.1416320800781,208.76596069335938,0.13333049416542053,0.17118193209171295,0.1943337470293045
1969-12-31T19:13:09.308000,0,0,0,0,-1.4452649354934692,-1.8185453414916992,9.54496955871582,-1.413983702659607,-1.81954026222229,9.6747407913208,-1.4612500667572021,4.567500114440918,0.8575000166893005,5.024287700653076,-1.9725990295410156,-0.9777477979660034,3.946214437484741,0.0,0.0,3.9462132453918457,-431.1416320800781,208.76596069335938,0.13333049416542053,0.17118193209171295,0.1943337470293045
1969-12-31T19:13:09.309000,0,0,0,0,-1.4452649354934692,-1.8185453414916992,9.54496955871582,-1.413983702659607,-1.81954026222229,9.6747407913208,-1.4612500667572021,4.567500114440918,0.8575000166893005,5.024287700653076,-1.9725990295410156,-0.9777477979660034,3.946214437484741,0.0,0.0,3.9462132453918457,-431.1416320800781,208.76596069335938,0.13333049416542053,0.17118193209171295,0.1943337470293045
1969-12-31T19:13:09.318000,0,0,0,0,-1.4428720474243164,-1.8137595653533936,9.65503978729248,-1.4192124605178833,-1.8184939622879028,9.671175003051758,0.875,1.321250081062317,0.20999999344348907,4.629587173461914,-1.6592719554901123,-0.8647633790969849,3.946214437484741,0.0,0.0,3.9462132453918457,-432.4836730957031,211.6817626953125,0.12894339859485626,0.17054790258407593,0.19055302441120148
1969-12-31T19:13:09.318000,0,0,0,0,-1.4428720474243164,-1.8137595653533936,9.65503978729248,-1.4192124605178833,-1.8184939622879028,9.671175003051758,0.875,1.321250081062317,0.20999999344348907,4.629587173461914,-1.6592719554901123,-0.8647633790969849,3.946214437484741,0.0,0.0,3.9462132453918457,-432.4836730957031,211.6817626953125,0.12894339859485626,0.17054790258407593,0.19055302441120148
1969-12-31T19:13:09.319000,0,0,0,0,-1.4428720474243164,-1.8137595653533936,9.65503978729248,-1.4192124605178833,-1.8184939622879028,9.671175003051758,0.875,1.321250081062317,0.20999999344348907,4.629587173461914,-1.6592719554901123,-0.8647633790969849,3.946214437484741,0.0,0.0,3.9462132453918457,-432.4836730957031,211.6817626953125,0.12894339859485626,0.17054790258407593,0.19055302441120148
1969-12-31T19:13:09.320000,0,0,0,0,-1.4428720474243164,-1.8137595653533936,9.65503978729248,-1.4192124605178833,-1.8184939622879028,9.671175003051758,0.875,1.321250081062317,0.20999999344348907,4.629587173461914,-1.6592719554901123,-0.8647633790969849,3.946214437484741,0.0,0.0,3.9462132453918457,-432.4836730957031,211.6817626953125,0.12894339859485626,0.17054790258407593,0.19055302441120148
1969-12-31T19:13:09.321000,0,0,0,0,-1.4428720474243164,-1.8137595653533936,9.65503978729248,-1.4192124605178833,-1.8184939622879028,9.671175003051758,0.875,1.321250081062317,0.20999999344348907,4.629587173461914,-1.6592719554901123,-0.8647633790969849,3.946214437484741,0.0,0.0,3.9462132453918457,-432.4836730957031,211.6817626953125,0.12894339859485626,0.17054790258407593,0.19055302441120148
1969-12-31T19:13:09.329000,0,0,0,0,-1.4572291374206543,-1.8137595653533936,9.614361763000488,-1.426093339920044,-1.8176370859146118,9.66089153289795,0.3499999940395355,0.29750001430511475,0.26249998807907104,4.22249174118042,-1.4731342792510986,-0.7575325965881348,3.946214437484741,0.0,0.0,3.9462132453918457,-433.69805908203125,214.3201904296875,0.12225305289030075,0.17023570835590363,0.1800551563501358
1969-12-31T19:13:09.330000,0,0,0,0,-1.4572291374206543,-1.8137595653533936,9.614361763000488,-1.426093339920044,-1.8176370859146118,9.66089153289795,0.3499999940395355,0.29750001430511475,0.26249998807907104,4.22249174118042,-1.4731342792510986,-0.7575325965881348,3.946214437484741,0.0,0.0,3.9462132453918457,-433.69805908203125,214.3201904296875,0.12225305289030075,0.17023570835590363,0.1800551563501358
1969-12-31T19:13:09.331000,0,0,0,0,-1.4572291374206543,-1.8137595653533936,9.614361763000488,-1.426093339920044,-1.8176370859146118,9.66089153289795,0.3499999940395355,0.29750001430511475,0.26249998807907104,4.22249174118042,-1.4731342792510986,-0.7575325965881348,3.946214437484741,0.0,0.0,3.9462132453918457,-433.69805908203125,214.3201904296875,0.12225305289030075,0.17023570835590363,0.1800551563501358
1969-12-31T19:13:09.332000,0,0,0,0,-1.4572291374206543,-1.8137595653533936,9.614361763000488,-1.426093339920044,-1.8176370859146118,9.66089153289795,0.3499999940395355,0.29750001430511475,0.26249998807907104,4.22249174118042,-1.4731342792510986,-0.7575325965881348,3.946214437484741,0.0,0.0,3.9462132453918457,-433.69805908203125,214.3201904296875,0.12225305289030075,0.17023570835590363,0.1800551563501358
1969-12-31T19:13:09.333000,0,0,0,0,-1.4572291374206543,-1.8137595653533936,9.614361763000488,-1.426093339920044,-1.8176370859146118,9.66089153289795,0.3499999940395355,0.29750001430511475,0.26249998807907104,4.22249174118042,-1.4731342792510986,-0.7575325965881348,3.946214437484741,0.0,0.0,3.9462132453918457,-433.69805908203125,214.3201904296875,0.12225305289030075,0.17023570835590363,0.1800551563501358
1969-12-31T19:13:09.341000,0,0,0,0,-1.447657585144043,-1.8424735069274902,9.597611427307129,-1.429996371269226,-1.8221324682235718,9.64943790435791,0.9099999666213989,-1.6450001001358032,0.026249999180436134,3.907391309738159,-1.4894829988479614,-0.6829753518104553,3.946214437484741,0.0,0.0,3.9462132453918457,-434.79693603515625,216.7076416015625,0.11681165546178818,0.16445884108543396,0.16808214783668518
1969-12-31T19:13:09.342000,0,0,0,0,-1.447657585144043,-1.8424735069274902,9.597611427307129,-1.429996371269226,-1.8221324682235718,9.64943790435791,0.9099999666213989,-1.6450001001358032,0.026249999180436134,3.907391309738159,-1.4894829988479614,-0.6829753518104553,3.946214437484741,0.0,0.0,3.9462132453918457,-434.79693603515625,216.7076416015625,0.11681165546178818,0.16445884108543396,0.16808214783668518
1969-12-31T19:13:09.343000,0,0,0,0,-1.447657585144043,-1.8424735069274902,9.597611427307129,-1.429996371269226,-1.8221324682235718,9.64943790435791,0.9099999666213989,-1.6450001001358032,0.026249999180436134,3.907391309738159,-1.4894829988479614,-0.6829753518104553,3.946214437484741,0.0,0.0,3.9462132453918457,-434.79693603515625,216.7076416015625,0.11681165546178818,0.16445884108543396,0.16808214783668518
1969-12-31T19:13:09.344000,0,0,0,0,-1.447657585144043,-1.8424735069274902,9.597611427307129,-1.429996371269226,-1.8221324682235718,9.64943790435791,0.9099999666213989,-1.6450001001358032,0.026249999180436134,3.907391309738159,-1.4894829988479614,-0.6829753518104553,3.946214437484741,0.0,0.0,3.9462132453918457,-434.79693603515625,216.7076416015625,0.11681165546178818,0.16445884108543396,0.16808214783668518
1969-12-31T19:13:09.345000,0,0,0,0,-1.447657585144043,-1.8424735069274902,9.597611427307129,-1.429996371269226,-1.8221324682235718,9.64943790435791,0.9099999666213989,-1.6450001001358032,0.026249999180436134,3.907391309738159,-1.4894829988479614,-0.6829753518104553,3.946214437484741,0.0,0.0,3.9462132453918457,-434.79693603515625,216.7076416015625,0.11681165546178818,0.16445884108543396,0.16808214783668518
1969-12-31T19:13:09.364000,0,0,0,0,-0.7920243144035339,-1.2179466485977173,9.133404731750488,-1.3145250082015991,-1.7127764225006104,9.556036949157715,8.015000343322754,-3.7100000381469727,-0.20999999344348907,4.298127174377441,-1.7007094621658325,-0.6379836201667786,3.946214437484741,0.0,0.0,3.9462132453918457,-435.7912902832031,218.8679962158203,0.22310911118984222,0.26142001152038574,0.07060087472200394
1969-12-31T19:13:09.365000,0,0,0,0,-0.7920243144035339,-1.2179466485977173,9.133404731750488,-1.3145250082015991,-1.7127764225006104,9.556036949157715,8.015000343322754,-3.7100000381469727,-0.20999999344348907,4.298127174377441,-1.7007094621658325,-0.6379836201667786,3.946214437484741,0.0,0.0,3.9462132453918457,-435.7912902832031,218.8679962158203,0.22310911118984222,0.26142001152038574,0.07060087472200394
1969-12-31T19:13:09.366000,0,0,0,0,-0.7920243144035339,-1.2179466485977173,9.133404731750488,-1.3145250082015991,-1.7127764225006104,9.556036949157715,8.015000343322754,-3.7100000381469727,-0.20999999344348907,4.298127174377441,-1.7007094621658325,-0.6379836201667786,3.946214437484741,0.0,0.0,3.9462132453918457,-435.7912902832031,218.8679962158203,0.22310911118984222,0.26142001152038574,0.07060087472200394
1969-12-31T19:13:09.367000,0,0,0,0,-0.7920243144035339,-1.2179466485977173,9.133404731750488,-1.3145250082015991,-1.7127764225006104,9.556036949157715,8.015000343322754,-3.7100000381469727,-0.20999999344348907,4.298127174377441,-1.7007094621658325,-0.6379836201667786,3.946214437484741,0.0,0.0,3.9462132453918457,-435.7912902832031,218.8679962158203,0.22310911118984222,0.26142001152038574,0.07060087472200394
1969-12-31T19:13:09.368000,0,0,0,0,-0.7920243144035339,-1.2179466485977173,9.133404731750488,-1.3145250082015991,-1.7127764225006104,9.556036949157715,8.015000343322754,-3.7100000381469727,-0.20999999344348907,4.298127174377441,-1.7007094621658325,-0.6379836201667786,3.946214437484741,0.0,0.0,3.9462132453918457,-435.7912902832031,218.8679962158203,0.22310911118984222,0.26142001152038574,0.07060087472200394
1969-12-31T19:13:09.376000,0,0,0,0,-1.392622709274292,-1.6247265338897705,10.1336030960083,-1.328660488128662,-1.6968395709991455,9.660574913024902,11.278749465942383,-5.153749942779541,0.48125001788139343,4.962158203125,-2.029179573059082,-0.5315166711807251,3.946214437484741,0.0,0.0,3.9462132453918457,-436.6910400390625,220.82284545898438,0.2035399079322815,0.2646803557872772,0.17163076996803284
1969-12-31T19:13:09.377000,0,0,0,0,-1.392622709274292,-1.6247265338897705,10.1336030960083,-1.328660488128662,-1.6968395709991455,9.660574913024902,11.278749465942383,-5.153749942779541,0.48125001788139343,4.962158203125,-2.029179573059082,-0.5315166711807251,3.946214437484741,0.0,0.0,3.9462132453918457,-436.6910400390625,220.82284545898438,0.2035399079322815,0.2646803557872772,0.17163076996803284
1969-12-31T19:13:09.378000,0,0,0,0,-1.392622709274292,-1.6247265338897705,10.1336030960083,-1.328660488128662,-1.6968395709991455,9.660574913024902,11.278749465942383,-5.153749942779541,0.48125001788139343,4.962158203125,-2.029179573059082,-0.5315166711807251,3.946214437484741,0.0,0.0,3.9462132453918457,-436.6910400390625,220.82284545898438,0.2035399079322815,0.2646803557872772,0.17163076996803284
1969-12-31T19:13:09.379000,0,0,0,0,-1.392622709274292,-1.6247265338897705,10.1336030960083,-1.328660488128662,-1.6968395709991455,9.660574913024902,11.278749465942383,-5.153749942779541,0.48125001788139343,4.962158203125,-2.029179573059082,-0.5315166711807251,3.946214437484741,0.0,0.0,3.9462132453918457,-436.6910400390625,220.82284545898438,0.2035399079322815,0.2646803557872772,0.17163076996803284
1969-12-31T19:13:09.380000,0,0,0,0,-1.392622709274292,-1.6247265338897705,10.1336030960083,-1.328660488128662,-1.6968395709991455,9.660574913024902,11.278749465942383,-5.153749942779541,0.48125001788139343,4.962158203125,-2.029179573059082,-0.5315166711807251,3.946214437484741,0.0,0.0,3.9462132453918457,-436.6910400390625,220.82284545898438,0.2035399079322815,0.2646803557872772,0.17163076996803284
1969-12-31T19:13:09.388000,0,0,0,0,-1.2610174417495728,-1.7156537771224976,9.626325607299805,-1.3164172172546387,-1.7002449035644531,9.654376029968262,-0.7175000309944153,4.007500171661377,0.49000000953674316,4.421881198883057,-1.4549410343170166,-0.434345006942749,3.946214437484741,0.0,0.0,3.9462132453918457,-437.5052185058594,222.59173583984375,0.21733832359313965,0.26033133268356323,0.1654878407716751
1969-12-31T19:13:09.389000,0,0,0,0,-1.2610174417495728,-1.7156537771224976,9.626325607299805,-1.3164172172546387,-1.7002449035644531,9.654376029968262,-0.7175000309944153,4.007500171661377,0.49000000953674316,4.421881198883057,-1.4549410343170166,-0.434345006942749,3.946214437484741,0.0,0.0,3.9462132453918457,-437.5052185058594,222.59173583984375,0.21733832359313965,0.26033133268356323,0.1654878407716751
1969-12-31T19:13:09.390000,0,0,0,0,-1.2610174417495728,-1.7156537771224976,9.626325607299805,-1.3164172172546387,-1.7002449035644531,9.654376029968262,-0.7175000309944153,4.007500171661377,0.49000000953674316,4.421881198883057,-1.4549410343170166,-0.434345006942749,3.946214437484741,0.0,0.0,3.9462132453918457,-437.5052185058594,222.59173583984375,0.21733832359313965,0.26033133268356323,0.1654878407716751
1969-12-31T19:13:09.391000,0,0,0,0,-1.2610174417495728,-1.7156537771224976,9.626325607299805,-1.3164172172546387,-1.7002449035644531,9.654376029968262,-0.7175000309944153,4.007500171661377,0.49000000953674316,4.421881198883057,-1.4549410343170166,-0.434345006942749,3.946214437484741,0.0,0.0,3.9462132453918457,-437.5052185058594,222.59173583984375,0.21733832359313965,0.26033133268356323,0.1654878407716751
1969-12-31T19:13:09.392000,0,0,0,0,-1.2610174417495728,-1.7156537771224976,9.626325607299805,-1.3164172172546387,-1.7002449035644531,9.654376029968262,-0.7175000309944153,4.007500171661377,0.49000000953674316,4.421881198883057,-1.4549410343170166,-0.434345006942749,3.946214437484741,0.0,0.0,3.9462132453918457,-437.5052185058594,222.59173583984375,0.21733832359313965,0.26033133268356323,0.1654878407716751
1969-12-31T19:13:09.400000,0,0,0,0,-1.4380863904953003,-1.7850456237792969,9.667003631591797,-1.3384389877319336,-1.7155935764312744,9.656661987304688,-1.7587499618530273,4.43625020980835,0.8399999737739563,3.833949327468872,-0.8945420980453491,-0.31312307715415955,3.946214437484741,0.0,0.0,3.9462132453918457,-438.241943359375,224.19235229492188,0.19891467690467834,0.2454078048467636,0.16844415664672852
1969-12-31T19:13:09.401000,0,0,0,0,-1.4380863904953003,-1.7850456237792969,9.667003631591797,-1.3384389877319336,-1.7155935764312744,9.656661987304688,-1.7587499618530273,4.43625020980835,0.8399999737739563,3.833949327468872,-0.8945420980453491,-0.31312307715415955,3.946214437484741,0.0,0.0,3.9462132453918457,-438.241943359375,224.19235229492188,0.19891467690467834,0.2454078048467636,0.16844415664672852
1969-12-31T19:13:09.402000,0,0,0,0,-1.4380863904953003,-1.7850456237792969,9.667003631591797,-1.3384389877319336,-1.7155935764312744,9.656661987304688,-1.7587499618530273,4.43625020980835,0.8399999737739563,3.833949327468872,-0.8945420980453491,-0.31312307715415955,3.946214437484741,0.0,0.0,3.9462132453918457,-438.241943359375,224.19235229492188,0.19891467690467834,0.2454078048467636,0.16844415664672852
1969-12-31T19:13:09.403000,0,0,0,0,-1.4380863904953003,-1.7850456237792969,9.667003631591797,-1.3384389877319336,-1.7155935764312744,9.656661987304688,-1.7587499618530273,4.43625020980835,0.8399999737739563,3.833949327468872,-0.8945420980453491,-0.31312307715415955,3.946214437484741,0.0,0.0,3.9462132453918457,-438.241943359375,224.19235229492188,0.19891467690467834,0.2454078048467636,0.16844415664672852
1969-12-31T19:13:09.404000,0,0,0,0,-1.4380863904953003,-1.7850456237792969,9.667003631591797,-1.3384389877319336,-1.7155935764312744,9.656661987304688,-1.7587499618530273,4.43625020980835,0.8399999737739563,3.833949327468872,-0.8945420980453491,-0.31312307715415955,3.946214437484741,0.0,0.0,3.9462132453918457,-438.241943359375,224.19235229492188,0.19891467690467834,0.2454078048467636,0.16844415664672852
1969-12-31T19:13:09.413000,0,0,0,0,-1.4356937408447266,-1.7682960033416748,9.6526460647583,-1.3560419082641602,-1.7251325845718384,9.655935287475586,-2.651249885559082,5.136249542236328,1.1987498998641968,3.217045545578003,-0.32086366415023804,-0.16930632293224335,3.946214437484741,0.0,0.0,3.9462132453918457,-438.9085693359375,225.64071655273438,0.18551579117774963,0.2368457317352295,0.16860035061836243
1969-12-31T19:13:09.413000,0,0,0,0,-1.4356937408447266,-1.7682960033416748,9.6526460647583,-1.3560419082641602,-1.7251325845718384,9.655935287475586,-2.651249885559082,5.136249542236328,1.1987498998641968,3.217045545578003,-0.32086366415023804,-0.16930632293224335,3.946214437484741,0.0,0.0,3.9462132453918457,-438.9085693359375,225.64071655273438,0.18551579117774963,0.2368457317352295,0.16860035061836243
1969-12-31T19:13:09.414000,0,0,0,0,-1.4356937408447266,-1.7682960033416748,9.6526460647583,-1.3560419082641602,-1.7251325845718384,9.655935287475586,-2.651249885559082,5.136249542236328,1.1987498998641968,3.217045545578003,-0.32086366415023804,-0.16930632293224335,3.946214437484741,0.0,0.0,3.9462132453918457,-438.9085693359375,225.64071655273438,0.18551579117774963,0.2368457317352295,0.16860035061836243
1969-12-31T19:13:09.415000,0,0,0,0,-1.4356937408447266,-1.7682960033416748,9.6526460647583,-1.3560419082641602,-1.7251325845718384,9.655935287475586,-2.651249885559082,5.136249542236328,1.1987498998641968,3.217045545578003,-0.32086366415023804,-0.16930632293224335,3.946214437484741,0.0,0.0,3.9462132453918457,-438.9085693359375,225.64071655273438,0.18551579117774963,0.2368457317352295,0.16860035061836243
1969-12-31T19:13:09.416000,0,0,0,0,-1.4356937408447266,-1.7682960033416748,9.6526460647583,-1.3560419082641602,-1.7251325845718384,9.655935287475586,-2.651249885559082,5.136249542236328,1.1987498998641968,3.217045545578003,-0.32086366415023804,-0.16930632293224335,3.946214437484741,0.0,0.0,3.9462132453918457,-438.9085693359375,225.64071655273438,0.18551579117774963,0.2368457317352295,0.16860035061836243
1969-12-31T19:13:09.435000,0,0,0,0,-1.3878371715545654,-1.758724570274353,9.77228832244873,-1.3617967367172241,-1.7312126159667969,9.676995277404785,-1.0499999523162842,-0.8225000500679016,0.3149999976158142,2.811143398284912,-0.36858177185058594,-0.12323673069477081,3.946214437484741,0.0,0.0,3.9462132453918457,-393.5982666015625,204.1850128173828,0.1782175898551941,0.2302461713552475,0.18930332362651825
1969-12-31T19:13:09.436000,0,0,0,0,-1.3878371715545654,-1.758724570274353,9.77228832244873,-1.3617967367172241,-1.7312126159667969,9.676995277404785,-1.0499999523162842,-0.8225000500679016,0.3149999976158142,2.811143398284912,-0.36858177185058594,-0.12323673069477081,3.946214437484741,0.0,0.0,3.9462132453918457,-393.5982666015625,204.1850128173828,0.1782175898551941,0.2302461713552475,0.18930332362651825
1969-12-31T19:13:09.437000,0,0,0,0,-1.3878371715545654,-1.758724570274353,9.77228832244873,-1.3617967367172241,-1.7312126159667969,9.676995277404785,-1.0499999523162842,-0.8225000500679016,0.3149999976158142,2.811143398284912,-0.36858177185058594,-0.12323673069477081,3.946214437484741,0.0,0.0,3.9462132453918457,-393.5982666015625,204.1850128173828,0.1782175898551941,0.2302461713552475,0.18930332362651825
1969-12-31T19:13:09.438000,0,0,0,0,-1.3878371715545654,-1.758724570274353,9.77228832244873,-1.3617967367172241,-1.7312126159667969,9.676995277404785,-1.0499999523162842,-0.8225000500679016,0.3149999976158142,2.811143398284912,-0.36858177185058594,-0.12323673069477081,3.946214437484741,0.0,0.0,3.9462132453918457,-393.5982666015625,204.1850128173828,0.1782175898551941,0.2302461713552475,0.18930332362651825
1969-12-31T19:13:09.439000,0,0,0,0,-1.3878371715545654,-1.758724570274353,9.77228832244873,-1.3617967367172241,-1.7312126159667969,9.676995277404785,-1.0499999523162842,-0.8225000500679016,0.3149999976158142,2.811143398284912,-0.36858177185058594,-0.12323673069477081,3.946214437484741,0.0,0.0,3.9462132453918457,-393.5982666015625,204.1850128173828,0.1782175898551941,0.2302461713552475,0.18930332362651825
1969-12-31T19:13:09.448000,0,0,0,0,-1.4213366508483887,-1.8233308792114258,9.602397918701172,-1.3725732564926147,-1.747885823249817,9.663493156433105,-2.108750104904175,1.058750033378601,0.7087500095367432,2.343139171600342,-0.2328069806098938,-0.044094085693359375,3.946214437484741,0.0,0.0,3.9462132453918457,-398.5116271972656,207.5365753173828,0.16807061433792114,0.21477946639060974,0.17615287005901337
1969-12-31T19:13:09.448000,0,0,0,0,-1.4213366508483887,-1.8233308792114258,9.602397918701172,-1.3725732564926147,-1.747885823249817,9.663493156433105,-2.108750104904175,1.058750033378601,0.7087500095367432,2.343139171600342,-0.2328069806098938,-0.044094085693359375,3.946214437484741,0.0,0.0,3.9462132453918457,-398.5116271972656,207.5365753173828,0.16807061433792114,0.21477946639060974,0.17615287005901337
1969-12-31T19:13:09.449000,0,0,0,0,-1.4213366508483887,-1.8233308792114258,9.602397918701172,-1.3725732564926147,-1.747885823249817,9.663493156433105,-2.108750104904175,1.058750033378601,0.7087500095367432,2.343139171600342,-0.2328069806098938,-0.044094085693359375,3.946214437484741,0.0,0.0,3.9462132453918457,-398.5116271972656,207.5365753173828,0.16807061433792114,0.21477946639060974,0.17615287005901337
1969-12-31T19:13:09.450000,0,0,0,0,-1.4213366508483887,-1.8233308792114258,9.602397918701172,-1.3725732564926147,-1.747885823249817,9.663493156433105,-2.108750104904175,1.058750033378601,0.7087500095367432,2.343139171600342,-0.2328069806098938,-0.044094085693359375,3.946214437484741,0.0,0.0,3.9462132453918457,-398.5116271972656,207.5365753173828,0.16807061433792114,0.21477946639060974,0.17615287005901337
1969-12-31T19:13:09.451000,0,0,0,0,-1.4213366508483887,-1.8233308792114258,9.602397918701172,-1.3725732564926147,-1.747885823249817,9.663493156433105,-2.108750104904175,1.058750033378601,0.7087500095367432,2.343139171600342,-0.2328069806098938,-0.044094085693359375,3.946214437484741,0.0,0.0,3.9462132453918457,-398.5116271972656,207.5365753173828,0.16807061433792114,0.21477946639060974,0.17615287005901337
1969-12-31T19:13:09.459000,0,0,0,0,-1.4931213855743408,-1.7635102272033691,9.714859962463379,-1.3943921327590942,-1.75071382522583,9.67279052734375,-0.5862500071525574,-0.6475000381469727,0.73499995470047,2.064481258392334,-0.27225461602211,0.030017152428627014,3.946214437484741,0.0,0.0,3.9462132453918457,-402.9576110839844,210.56932067871094,0.14601866900920868,0.2110985964536667,0.1852361112833023
1969-12-31T19:13:09.460000,0,0,0,0,-1.4931213855743408,-1.7635102272033691,9.714859962463379,-1.3943921327590942,-1.75071382522583,9.67279052734375,-0.5862500071525574,-0.6475000381469727,0.73499995470047,2.064481258392334,-0.27225461602211,0.030017152428627014,3.946214437484741,0.0,0.0,3.9462132453918457,-402.9576110839844,210.56932067871094,0.14601866900920868,0.2110985964536667,0.1852361112833023
1969-12-31T19:13:09.461000,0,0,0,0,-1.4931213855743408,-1.7635102272033691,9.714859962463379,-1.3943921327590942,-1.75071382522583,9.67279052734375,-0.5862500071525574,-0.6475000381469727,0.73499995470047,2.064481258392334,-0.27225461602211,0.030017152428627014,3.946214437484741,0.0,0.0,3.9462132453918457,-402.9576110839844,210.56932067871094,0.14601866900920868,0.2110985964536667,0.1852361112833023
1969-12-31T19:13:09.462000,0,0,0,0,-1.4931213855743408,-1.7635102272033691,9.714859962463379,-1.3943921327590942,-1.75071382522583,9.67279052734375,-0.5862500071525574,-0.6475000381469727,0.73499995470047,2.064481258392334,-0.27225461602211,0.030017152428627014,3.946214437484741,0.0,0.0,3.9462132453918457,-402.9576110839844,210.56932067871094,0.14601866900920868,0.2110985964536667,0.1852361112833023
1969-12-31T19:13:09.463000,0,0,0,0,-1.4931213855743408,-1.7635102272033691,9.714859962463379,-1.3943921327590942,-1.75071382522583,9.67279052734375,-0.5862500071525574,-0.6475000381469727,0.73499995470047,2.064481258392334,-0.27225461602211,0.030017152428627014,3.946214437484741,0.0,0.0,3.9462132453918457,-402.9576110839844,210.56932067871094,0.14601866900920868,0.2110985964536667,0.1852361112833023
1969-12-31T19:13:09.471000,0,0,0,0,-1.4691929817199707,-1.8137595653533936,9.635896682739258,-1.407930850982666,-1.7621248960494995,9.666112899780273,-0.8399999737739563,2.1787497997283936,0.7087500095367432,1.7881927490234375,-0.03910307586193085,0.09458154439926147,3.946214437484741,0.0,0.0,3.9462132453918457,-406.98065185546875,213.31356811523438,0.13445083796977997,0.19967737793922424,0.17887645959854126
1969-12-31T19:13:09.472000,0,0,0,0,-1.4691929817199707,-1.8137595653533936,9.635896682739258,-1.407930850982666,-1.7621248960494995,9.666112899780273,-0.8399999737739563,2.1787497997283936,0.7087500095367432,1.7881927490234375,-0.03910307586193085,0.09458154439926147,3.946214437484741,0.0,0.0,3.9462132453918457,-406.98065185546875,213.31356811523438,0.13445083796977997,0.19967737793922424,0.17887645959854126
1969-12-31T19:13:09.473000,0,0,0,0,-1.4691929817199707,-1.8137595653533936,9.635896682739258,-1.407930850982666,-1.7621248960494995,9.666112899780273,-0.8399999737739563,2.1787497997283936,0.7087500095367432,1.7881927490234375,-0.03910307586193085,0.09458154439926147,3.946214437484741,0.0,0.0,3.9462132453918457,-406.98065185546875,213.31356811523438,0.13445083796977997,0.19967737793922424,0.17887645959854126
1969-12-31T19:13:09.474000,0,0,0,0,-1.4691929817199707,-1.8137595653533936,9.635896682739258,-1.407930850982666,-1.7621248960494995,9.666112899780273,-0.8399999737739563,2.1787497997283936,0.7087500095367432,1.7881927490234375,-0.03910307586193085,0.09458154439926147,3.946214437484741,0.0,0.0,3.9462132453918457,-406.98065185546875,213.31356811523438,0.13445083796977997,0.19967737793922424,0.17887645959854126
1969-12-31T19:13:09.475000,0,0,0,0,-1.4691929817199707,-1.8137595653533936,9.635896682739258,-1.407930850982666,-1.7621248960494995,9.666112899780273,-0.8399999737739563,2.1787497997283936,0.7087500095367432,1.7881927490234375,-0.03910307586193085,0.09458154439926147,3.946214437484741,0.0,0.0,3.9462132453918457,-406.98065185546875,213.31356811523438,0.13445083796977997,0.19967737793922424,0.17887645959854126
1969-12-31T19:13:09.483000,0,0,0,0,-1.4835500717163086,-1.808974027633667,9.633503913879395,-1.4216177463531494,-1.7706044912338257,9.660210609436035,0.48125001788139343,0.8049999475479126,0.49000000953674316,1.6638699769973755,0.04119213670492172,0.13219568133354187,3.946214437484741,0.0,0.0,3.9462132453918457,-410.6210021972656,215.79678344726562,0.12168318033218384,0.19007794559001923,0.1728920340538025
1969-12-31T19:13:09.484000,0,0,0,0,-1.4835500717163086,-1.808974027633667,9.633503913879395,-1.4216177463531494,-1.7706044912338257,9.660210609436035,0.48125001788139343,0.8049999475479126,0.49000000953674316,1.6638699769973755,0.04119213670492172,0.13219568133354187,3.946214437484741,0.0,0.0,3.9462132453918457,-410.6210021972656,215.79678344726562,0.12168318033218384,0.19007794559001923,0.1728920340538025
1969-12-31T19:13:09.485000,0,0,0,0,-1.4835500717163086,-1.808974027633667,9.633503913879395,-1.4216177463531494,-1.7706044912338257,9.660210609436035,0.48125001788139343,0.8049999475479126,0.49000000953674316,1.6638699769973755,0.04119213670492172,0.13219568133354187,3.946214437484741,0.0,0.0,3.9462132453918457,-410.6210021972656,215.79678344726562,0.12168318033218384,0.19007794559001923,0.1728920340538025
1969-12-31T19:13:09.486000,0,0,0,0,-1.4835500717163086,-1.808974027633667,9.633503913879395,-1.4216177463531494,-1.7706044912338257,9.660210609436035,0.48125001788139343,0.8049999475479126,0.49000000953674316,1.6638699769973755,0.04119213670492172,0.13219568133354187,3.946214437484741,0.0,0.0,3.9462132453918457,-410.6210021972656,215.79678344726562,0.12168318033218384,0.19007794559001923,0.1728920340538025
1969-12-31T19:13:09.487000,0,0,0,0,-1.4835500717163086,-1.808974027633667,9.633503913879395,-1.4216177463531494,-1.7706044912338257,9.660210609436035,0.48125001788139343,0.8049999475479126,0.49000000953674316,1.6638699769973755,0.04119213670492172,0.13219568133354187,3.946214437484741,0.0,0.0,3.9462132453918457,-410.6210021972656,215.79678344726562,0.12168318033218384,0.19007794559001923,0.1728920340538025
1969-12-31T19:13:09.506000,0,0,0,0,-1.4787644147872925,-1.7922241687774658,9.6526460647583,-1.431961178779602,-1.7745176553726196,9.658841133117676,-0.9537500143051147,1.2512500286102295,0.7787500023841858,1.4148691892623901,0.15629875659942627,0.19369909167289734,3.946214437484741,0.0,0.0,3.9462132453918457,-413.9150695800781,218.0437774658203,0.11259952932596207,0.18601404130458832,0.17169657349586487
1969-12-31T19:13:09.507000,0,0,0,0,-1.4787644147872925,-1.7922241687774658,9.6526460647583,-1.431961178779602,-1.7745176553726196,9.658841133117676,-0.9537500143051147,1.2512500286102295,0.7787500023841858,1.4148691892623901,0.15629875659942627,0.19369909167289734,3.946214437484741,0.0,0.0,3.9462132453918457,-413.9150695800781,218.0437774658203,0.11259952932596207,0.18601404130458832,0.17169657349586487
1969-12-31T19:13:09.508000,0,0,0,0,-1.4787644147872925,-1.7922241687774658,9.6526460647583,-1.431961178779602,-1.7745176553726196,9.658841133117676,-0.9537500143051147,1.2512500286102295,0.7787500023841858,1.4148691892623901,0.15629875659942627,0.19369909167289734,3.946214437484741,0.0,0.0,3.9462132453918457,-413.9150695800781,218.0437774658203,0.11259952932596207,0.18601404130458832,0.17169657349586487
1969-12-31T19:13:09.509000,0,0,0,0,-1.4787644147872925,-1.7922241687774658,9.6526460647583,-1.431961178779602,-1.7745176553726196,9.658841133117676,-0.9537500143051147,1.2512500286102295,0.7787500023841858,1.4148691892623901,0.15629875659942627,0.19369909167289734,3.946214437484741,0.0,0.0,3.9462132453918457,-413.9150695800781,218.0437774658203,0.11259952932596207,0.18601404130458832,0.17169657349586487
1969-12-31T19:13:09.510000,0,0,0,0,-1.4787644147872925,-1.7922241687774658,9.6526460647583,-1.431961178779602,-1.7745176553726196,9.658841133117676,-0.9537500143051147,1.2512500286102295,0.7787500023841858,1.4148691892623901,0.15629875659942627,0.19369909167289734,3.946214437484741,0.0,0.0,3.9462132453918457,-413.9150695800781,218.0437774658203,0.11259952932596207,0.18601404130458832,0.17169657349586487
1969-12-31T19:13:09.519000,0,0,0,0,-1.430907964706421,-1.7659032344818115,9.664609909057617,-1.4317705631256104,-1.772958517074585,9.65988540649414,-1.1112500429153442,0.8925000429153442,0.7437500357627869,1.1745723485946655,0.22632983326911926,0.24602262675762177,3.946214437484741,0.0,0.0,3.9462132453918457,-416.8957824707031,220.0770263671875,0.1132623627781868,0.18730175495147705,0.17276179790496826
1969-12-31T19:13:09.520000,0,0,0,0,-1.430907964706421,-1.7659032344818115,9.664609909057617,-1.4317705631256104,-1.772958517074585,9.65988540649414,-1.1112500429153442,0.8925000429153442,0.7437500357627869,1.1745723485946655,0.22632983326911926,0.24602262675762177,3.946214437484741,0.0,0.0,3.9462132453918457,-416.8957824707031,220.0770263671875,0.1132623627781868,0.18730175495147705,0.17276179790496826
1969-12-31T19:13:09.521000,0,0,0,0,-1.430907964706421,-1.7659032344818115,9.664609909057617,-1.4317705631256104,-1.772958517074585,9.65988540649414,-1.1112500429153442,0.8925000429153442,0.7437500357627869,1.1745723485946655,0.22632983326911926,0.24602262675762177,3.946214437484741,0.0,0.0,3.9462132453918457,-416.8957824707031,220.0770263671875,0.1132623627781868,0.18730175495147705,0.17276179790496826
1969-12-31T19:13:09.522000,0,0,0,0,-1.430907964706421,-1.7659032344818115,9.664609909057617,-1.4317705631256104,-1.772958517074585,9.65988540649414,-1.1112500429153442,0.8925000429153442,0.7437500357627869,1.1745723485946655,0.22632983326911926,0.24602262675762177,3.946214437484741,0.0,0.0,3.9462132453918457,-416.8957824707031,220.0770263671875,0.1132623627781868,0.18730175495147705,0.17276179790496826
1969-12-31T19:13:09.523000,0,0,0,0,-1.430907964706421,-1.7659032344818115,9.664609909057617,-1.4317705631256104,-1.772958517074585,9.65988540649414,-1.1112500429153442,0.8925000429153442,0.7437500357627869,1.1745723485946655,0.22632983326911926,0.24602262675762177,3.946214437484741,0.0,0.0,3.9462132453918457,-416.8957824707031,220.0770263671875,0.1132623627781868,0.18730175495147705,0.17276179790496826
1969-12-31T19:13:09.531000,0,0,0,0,-1.454836130142212,-1.770688772201538,9.681360244750977,-1.4359453916549683,-1.772547721862793,9.663772583007812,-1.4612500667572021,0.5512499809265137,0.6825000047683716,0.9238400459289551,0.25723782181739807,0.2875424921512604,3.946214437484741,0.0,0.0,3.9462132453918457,-419.59295654296875,221.91685485839844,0.1094672679901123,0.18775275349617004,0.1767190396785736
1969-12-31T19:13:09.532000,0,0,0,0,-1.454836130142212,-1.770688772201538,9.681360244750977,-1.4359453916549683,-1.772547721862793,9.663772583007812,-1.4612500667572021,0.5512499809265137,0.6825000047683716,0.9238400459289551,0.25723782181739807,0.2875424921512604,3.946214437484741,0.0,0.0,3.9462132453918457,-419.59295654296875,221.91685485839844,0.1094672679901123,0.18775275349617004,0.1767190396785736
1969-12-31T19:13:09.533000,0,0,0,0,-1.454836130142212,-1.770688772201538,9.681360244750977,-1.4359453916549683,-1.772547721862793,9.663772583007812,-1.4612500667572021,0.5512499809265137,0.6825000047683716,0.9238400459289551,0.25723782181739807,0.2875424921512604,3.946214437484741,0.0,0.0,3.9462132453918457,-419.59295654296875,221.91685485839844,0.1094672679901123,0.18775275349617004,0.1767190396785736
1969-12-31T19:13:09.534000,0,0,0,0,-1.454836130142212,-1.770688772201538,9.681360244750977,-1.4359453916549683,-1.772547721862793,9.663772583007812,-1.4612500667572021,0.5512499809265137,0.6825000047683716,0.9238400459289551,0.25723782181739807,0.2875424921512604,3.946214437484741,0.0,0.0,3.9462132453918457,-419.59295654296875,221.91685485839844,0.1094672679901123,0.18775275349617004,0.1767190396785736
1969-12-31T19:13:09.535000,0,0,0,0,-1.454836130142212,-1.770688772201538,9.681360244750977,-1.4359453916549683,-1.772547721862793,9.663772583007812,-1.4612500667572021,0.5512499809265137,0.6825000047683716,0.9238400459289551,0.25723782181739807,0.2875424921512604,3.946214437484741,0.0,0.0,3.9462132453918457,-419.59295654296875,221.91685485839844,0.1094672679901123,0.18775275349617004,0.1767190396785736
1969-12-31T19:13:09.543000,0,0,0,0,-1.466800332069397,-1.7850456237792969,9.6526460647583,-1.4415301084518433,-1.7748098373413086,9.661758422851562,-0.7612499594688416,1.618749976158142,0.699999988079071,0.7635460495948792,0.38675153255462646,0.32677745819091797,3.946214437484741,0.0,0.0,3.9462132453918457,-422.0335693359375,223.58168029785156,0.10529595613479614,0.18513138592243195,0.1748611479997635
1969-12-31T19:13:09.544000,0,0,0,0,-1.466800332069397,-1.7850456237792969,9.6526460647583,-1.4415301084518433,-1.7748098373413086,9.661758422851562,-0.7612499594688416,1.618749976158142,0.699999988079071,0.7635460495948792,0.38675153255462646,0.32677745819091797,3.946214437484741,0.0,0.0,3.9462132453918457,-422.0335693359375,223.58168029785156,0.10529595613479614,0.18513138592243195,0.1748611479997635
1969-12-31T19:13:09.545000,0,0,0,0,-1.466800332069397,-1.7850456237792969,9.6526460647583,-1.4415301084518433,-1.7748098373413086,9.661758422851562,-0.7612499594688416,1.618749976158142,0.699999988079071,0.7635460495948792,0.38675153255462646,0.32677745819091797,3.946214437484741,0.0,0.0,3.9462132453918457,-422.0335693359375,223.58168029785156,0.10529595613479614,0.18513138592243195,0.1748611479997635
1969-12-31T19:13:09.546000,0,0,0,0,-1.466800332069397,-1.7850456237792969,9.6526460647583,-1.4415301084518433,-1.7748098373413086,9.661758422851562,-0.7612499594688416,1.618749976158142,0.699999988079071,0.7635460495948792,0.38675153255462646,0.32677745819091797,3.946214437484741,0.0,0.0,3.9462132453918457,-422.0335693359375,223.58168029785156,0.10529595613479614,0.18513138592243195,0.1748611479997635
1969-12-31T19:13:09.547000,0,0,0,0,-1.466800332069397,-1.7850456237792969,9.6526460647583,-1.4415301084518433,-1.7748098373413086,9.661758422851562,-0.7612499594688416,1.618749976158142,0.699999988079071,0.7635460495948792,0.38675153255462646,0.32677745819091797,3.946214437484741,0.0,0.0,3.9462132453918457,-422.0335693359375,223.58168029785156,0.10529595613479614,0.18513138592243195,0.1748611479997635
1969-12-31T19:13:09.556000,0,0,0,0,-1.4452649354934692,-1.770688772201538,9.659825325012207,-1.4422061443328857,-1.7740639448165894,9.661408424377441,-0.5774999856948853,1.6624999046325684,0.8312499523162842,0.635979175567627,0.5081069469451904,0.3747653365135193,3.946214437484741,0.0,0.0,3.9462132453918457,-405.3783264160156,156.76699829101562,0.10586337745189667,0.18520914018154144,0.17457491159439087
1969-12-31T19:13:09.557000,0,0,0,0,-1.4452649354934692,-1.770688772201538,9.659825325012207,-1.4422061443328857,-1.7740639448165894,9.661408424377441,-0.5774999856948853,1.6624999046325684,0.8312499523162842,0.635979175567627,0.5081069469451904,0.3747653365135193,3.946214437484741,0.0,0.0,3.9462132453918457,-405.3783264160156,156.76699829101562,0.10586337745189667,0.18520914018154144,0.17457491159439087
1969-12-31T19:13:09.558000,0,0,0,0,-1.4452649354934692,-1.770688772201538,9.659825325012207,-1.4422061443328857,-1.7740639448165894,9.661408424377441,-0.5774999856948853,1.6624999046325684,0.8312499523162842,0.635979175567627,0.5081069469451904,0.3747653365135193,3.946214437484741,0.0,0.0,3.9462132453918457,-405.3783264160156,156.76699829101562,0.10586337745189667,0.18520914018154144,0.17457491159439087
1969-12-31T19:13:09.559000,0,0,0,0,-1.4452649354934692,-1.770688772201538,9.659825325012207,-1.4422061443328857,-1.7740639448165894,9.661408424377441,-0.5774999856948853,1.6624999046325684,0.8312499523162842,0.635979175567627,0.5081069469451904,0.3747653365135193,3.946214437484741,0.0,0.0,3.9462132453918457,-405.3783264160156,156.76699829101562,0.10586337745189667,0.18520914018154144,0.17457491159439087
1969-12-31T19:13:09.560000,0,0,0,0,-1.4452649354934692,-1.770688772201538,9.659825325012207,-1.4422061443328857,-1.7740639448165894,9.661408424377441,-0.5774999856948853,1.6624999046325684,0.8312499523162842,0.635979175567627,0.5081069469451904,0.3747653365135193,3.946214437484741,0.0,0.0,3.9462132453918457,-405.3783264160156,156.76699829101562,0.10586337745189667,0.18520914018154144,0.17457491159439087
1969-12-31T19:13:09.579000,0,0,0,0,-1.4907286167144775,-1.7874386310577393,9.66939640045166,-1.450988531112671,-1.776484727859497,9.662854194641113,0.8399999737739563,-1.2074999809265137,1.9075000286102295,0.6553866267204285,0.34491002559661865,0.5205665826797485,3.946214437484741,0.0,0.0,3.9462132453918457,-409.1711120605469,164.6291961669922,0.0965387299656868,0.18093810975551605,0.17555107176303864
1969-12-31T19:13:09.580000,0,0,0,0,-1.4907286167144775,-1.7874386310577393,9.66939640045166,-1.450988531112671,-1.776484727859497,9.662854194641113,0.8399999737739563,-1.2074999809265137,1.9075000286102295,0.6553866267204285,0.34491002559661865,0.5205665826797485,3.946214437484741,0.0,0.0,3.9462132453918457,-409.1711120605469,164.6291961669922,0.0965387299656868,0.18093810975551605,0.17555107176303864
1969-12-31T19:13:09.581000,0,0,0,0,-1.4907286167144775,-1.7874386310577393,9.66939640045166,-1.450988531112671,-1.776484727859497,9.662854194641113,0.8399999737739563,-1.2074999809265137,1.9075000286102295,0.6553866267204285,0.34491002559661865,0.5205665826797485,3.946214437484741,0.0,0.0,3.9462132453918457,-409.1711120605469,164.6291961669922,0.0965387299656868,0.18093810975551605,0.17555107176303864
1969-12-31T19:13:09.582000,0,0,0,0,-1.4907286167144775,-1.7874386310577393,9.66939640045166,-1.450988531112671,-1.776484727859497,9.662854194641113,0.8399999737739563,-1.2074999809265137,1.9075000286102295,0.6553866267204285,0.34491002559661865,0.5205665826797485,3.946214437484741,0.0,0.0,3.9462132453918457,-409.1711120605469,164.6291961669922,0.0965387299656868,0.18093810975551605,0.17555107176303864
1969-12-31T19:13:09.583000,0,0,0,0,-1.4907286167144775,-1.7874386310577393,9.66939640045166,-1.450988531112671,-1.776484727859497,9.662854194641113,0.8399999737739563,-1.2074999809265137,1.9075000286102295,0.6553866267204285,0.34491002559661865,0.5205665826797485,3.946214437484741,0.0,0.0,3.9462132453918457,-409.1711120605469,164.6291961669922,0.0965387299656868,0.18093810975551605,0.17555107176303864
1969-12-31T19:13:09.591000,0,0,0,0,-1.4428720474243164,-1.8065810203552246,9.590433120727539,-1.4495195150375366,-1.7819321155548096,9.64974594116211,0.14875000715255737,-0.6562499403953552,1.6887500286102295,0.607192873954773,0.24967479705810547,0.6316899061203003,3.946214437484741,0.0,0.0,3.9462132453918457,-412.6031188964844,171.74349975585938,0.09753246605396271,0.17459754645824432,0.16218124330043793
1969-12-31T19:13:09.592000,0,0,0,0,-1.4428720474243164,-1.8065810203552246,9.590433120727539,-1.4495195150375366,-1.7819321155548096,9.64974594116211,0.14875000715255737,-0.6562499403953552,1.6887500286102295,0.607192873954773,0.24967479705810547,0.6316899061203003,3.946214437484741,0.0,0.0,3.9462132453918457,-412.6031188964844,171.74349975585938,0.09753246605396271,0.17459754645824432,0.16218124330043793
1969-12-31T19:13:09.593000,0,0,0,0,-1.4428720474243164,-1.8065810203552246,9.590433120727539,-1.4495195150375366,-1.7819321155548096,9.64974594116211,0.14875000715255737,-0.6562499403953552,1.6887500286102295,0.607192873954773,0.24967479705810547,0.6316899061203003,3.946214437484741,0.0,0.0,3.9462132453918457,-412.6031188964844,171.74349975585938,0.09753246605396271,0.17459754645824432,0.16218124330043793
1969-12-31T19:13:09.594000,0,0,0,0,-1.4428720474243164,-1.8065810203552246,9.590433120727539,-1.4495195150375366,-1.7819321155548096,9.64974594116211,0.14875000715255737,-0.6562499403953552,1.6887500286102295,0.607192873954773,0.24967479705810547,0.6316899061203003,3.946214437484741,0.0,0.0,3.9462132453918457,-412.6031188964844,171.74349975585938,0.09753246605396271,0.17459754645824432,0.16218124330043793
1969-12-31T19:13:09.595000,0,0,0,0,-1.4428720474243164,-1.8065810203552246,9.590433120727539,-1.4495195150375366,-1.7819321155548096,9.64974594116211,0.14875000715255737,-0.6562499403953552,1.6887500286102295,0.607192873954773,0.24967479705810547,0.6316899061203003,3.946214437484741,0.0,0.0,3.9462132453918457,-412.6031188964844,171.74349975585938,0.09753246605396271,0.17459754645824432,0.16218124330043793
1969-12-31T19:13:09.603000,0,0,0,0,-1.4763715267181396,-1.825723648071289,9.628718376159668,-1.454379677772522,-1.7898582220077515,9.645939826965332,0.6299999952316284,-2.283750057220459,0.5512499809265137,0.6093624234199524,0.00868302583694458,0.62403804063797,3.946214437484741,0.0,0.0,3.9462132453918457,-415.7086486816406,178.18106079101562,0.09092403203248978,0.16565056145191193,0.1578795164823532
1969-12-31T19:13:09.604000,0,0,0,0,-1.4763715267181396,-1.825723648071289,9.628718376159668,-1.454379677772522,-1.7898582220077515,9.645939826965332,0.6299999952316284,-2.283750057220459,0.5512499809265137,0.6093624234199524,0.00868302583694458,0.62403804063797,3.946214437484741,0.0,0.0,3.9462132453918457,-415.7086486816406,178.18106079101562,0.09092403203248978,0.16565056145191193,0.1578795164823532
1969-12-31T19:13:09.605000,0,0,0,0,-1.4763715267181396,-1.825723648071289,9.628718376159668,-1.454379677772522,-1.7898582220077515,9.645939826965332,0.6299999952316284,-2.283750057220459,0.5512499809265137,0.6093624234199524,0.00868302583694458,0.62403804063797,3.946214437484741,0.0,0.0,3.9462132453918457,-415.7086486816406,178.18106079101562,0.09092403203248978,0.16565056145191193,0.1578795164823532
1969-12-31T19:13:09.606000,0,0,0,0,-1.4763715267181396,-1.825723648071289,9.628718376159668,-1.454379677772522,-1.7898582220077515,9.645939826965332,0.6299999952316284,-2.283750057220459,0.5512499809265137,0.6093624234199524,0.00868302583694458,0.62403804063797,3.946214437484741,0.0,0.0,3.9462132453918457,-415.7086486816406,178.18106079101562,0.09092403203248978,0.16565056145191193,0.1578795164823532
1969-12-31T19:13:09.607000,0,0,0,0,-1.4763715267181396,-1.825723648071289,9.628718376159668,-1.454379677772522,-1.7898582220077515,9.645939826965332,0.6299999952316284,-2.283750057220459,0.5512499809265137,0.6093624234199524,0.00868302583694458,0.62403804063797,3.946214437484741,0.0,0.0,3.9462132453918457,-415.7086486816406,178.18106079101562,0.09092403203248978,0.16565056145191193,0.1578795164823532
1969-12-31T19:13:09.615000,0,0,0,0,-1.4333007335662842,-1.8161523342132568,9.671789169311523,-1.4505643844604492,-1.7946174144744873,9.650618553161621,0.997499942779541,-2.9049997329711914,0.14875000715255737,0.6462839841842651,-0.26848071813583374,0.5788263082504272,3.946214437484741,0.0,0.0,3.9462132453918457,-418.5187683105469,184.00624084472656,0.09195097535848618,0.15947787463665009,0.1618131548166275
1969-12-31T19:13:09.616000,0,0,0,0,-1.4333007335662842,-1.8161523342132568,9.671789169311523,-1.4505643844604492,-1.7946174144744873,9.650618553161621,0.997499942779541,-2.9049997329711914,0.14875000715255737,0.6462839841842651,-0.26848071813583374,0.5788263082504272,3.946214437484741,0.0,0.0,3.9462132453918457,-418.5187683105469,184.00624084472656,0.09195097535848618,0.15947787463665009,0.1618131548166275
1969-12-31T19:13:09.617000,0,0,0,0,-1.4333007335662842,-1.8161523342132568,9.671789169311523,-1.4505643844604492,-1.7946174144744873,9.650618553161621,0.997499942779541,-2.9049997329711914,0.14875000715255737,0.6462839841842651,-0.26848071813583374,0.5788263082504272,3.946214437484741,0.0,0.0,3.9462132453918457,-418.5187683105469,184.00624084472656,0.09195097535848618,0.15947787463665009,0.1618131548166275
1969-12-31T19:13:09.618000,0,0,0,0,-1.4333007335662842,-1.8161523342132568,9.671789169311523,-1.4505643844604492,-1.7946174144744873,9.650618553161621,0.997499942779541,-2.9049997329711914,0.14875000715255737,0.6462839841842651,-0.26848071813583374,0.5788263082504272,3.946214437484741,0.0,0.0,3.9462132453918457,-418.5187683105469,184.00624084472656,0.09195097535848618,0.15947787463665009,0.1618131548166275
1969-12-31T19:13:09.619000,0,0,0,0,-1.4333007335662842,-1.8161523342132568,9.671789169311523,-1.4505643844604492,-1.7946174144744873,9.650618553161621,0.997499942779541,-2.9049997329711914,0.14875000715255737,0.6462839841842651,-0.26848071813583374,0.5788263082504272,3.946214437484741,0.0,0.0,3.9462132453918457,-418.5187683105469,184.00624084472656,0.09195097535848618,0.15947787463665009,0.1618131548166275
1969-12-31T19:13:09.627000,0,0,0,0,-1.447657585144043,-1.7874386310577393,9.69093132019043,-1.4500383138656616,-1.7933180332183838,9.657915115356445,0.6212499737739563,-2.336250066757202,0.33250001072883606,0.643902599811554,-0.465177059173584,0.5553945302963257,3.946214437484741,0.0,0.0,3.9462132453918457,-421.0615539550781,189.27731323242188,0.09033772349357605,0.15935567021369934,0.16846942901611328
1969-12-31T19:13:09.628000,0,0,0,0,-1.447657585144043,-1.7874386310577393,9.69093132019043,-1.4500383138656616,-1.7933180332183838,9.657915115356445,0.6212499737739563,-2.336250066757202,0.33250001072883606,0.643902599811554,-0.465177059173584,0.5553945302963257,3.946214437484741,0.0,0.0,3.9462132453918457,-421.0615539550781,189.27731323242188,0.09033772349357605,0.15935567021369934,0.16846942901611328
1969-12-31T19:13:09.629000,0,0,0,0,-1.447657585144043,-1.7874386310577393,9.69093132019043,-1.4500383138656616,-1.7933180332183838,9.657915115356445,0.6212499737739563,-2.336250066757202,0.33250001072883606,0.643902599811554,-0.465177059173584,0.5553945302963257,3.946214437484741,0.0,0.0,3.9462132453918457,-421.0615539550781,189.27731323242188,0.09033772349357605,0.15935567021369934,0.16846942901611328
1969-12-31T19:13:09.630000,0,0,0,0,-1.447657585144043,-1.7874386310577393,9.69093132019043,-1.4500383138656616,-1.7933180332183838,9.657915115356445,0.6212499737739563,-2.336250066757202,0.33250001072883606,0.643902599811554,-0.465177059173584,0.5553945302963257,3.946214437484741,0.0,0.0,3.9462132453918457,-421.0615539550781,189.27731323242188,0.09033772349357605,0.15935567021369934,0.16846942901611328
1969-12-31T19:13:09.631000,0,0,0,0,-1.447657585144043,-1.7874386310577393,9.69093132019043,-1.4500383138656616,-1.7933180332183838,9.657915115356445,0.6212499737739563,-2.336250066757202,0.33250001072883606,0.643902599811554,-0.465177059173584,0.5553945302963257,3.946214437484741,0.0,0.0,3.9462132453918457,-421.0615539550781,189.27731323242188,0.09033772349357605,0.15935567021369934,0.16846942901611328
1969-12-31T19:13:09.650000,0,0,0,0,-1.4333007335662842,-1.7563319206237793,9.702895164489746,-1.4470088481903076,-1.7866235971450806,9.666056632995605,0.33250001072883606,-3.2637500762939453,0.2887499928474426,0.6142804622650146,-0.7313910126686096,0.5300300121307373,3.946214437484741,0.0,0.0,3.9462132453918457,-423.3624572753906,194.04696655273438,0.09032672643661499,0.16457681357860565,0.17581528425216675
1969-12-31T19:13:09.651000,0,0,0,0,-1.4333007335662842,-1.7563319206237793,9.702895164489746,-1.4470088481903076,-1.7866235971450806,9.666056632995605,0.33250001072883606,-3.2637500762939453,0.2887499928474426,0.6142804622650146,-0.7313910126686096,0.5300300121307373,3.946214437484741,0.0,0.0,3.9462132453918457,-423.3624572753906,194.04696655273438,0.09032672643661499,0.16457681357860565,0.17581528425216675
1969-12-31T19:13:09.652000,0,0,0,0,-1.4333007335662842,-1.7563319206237793,9.702895164489746,-1.4470088481903076,-1.7866235971450806,9.666056632995605,0.33250001072883606,-3.2637500762939453,0.2887499928474426,0.6142804622650146,-0.7313910126686096,0.5300300121307373,3.946214437484741,0.0,0.0,3.9462132453918457,-423.3624572753906,194.04696655273438,0.09032672643661499,0.16457681357860565,0.17581528425216675
1969-12-31T19:13:09.653000,0,0,0,0,-1.4333007335662842,-1.7563319206237793,9.702895164489746,-1.4470088481903076,-1.7866235971450806,9.666056632995605,0.33250001072883606,-3.2637500762939453,0.2887499928474426,0.6142804622650146,-0.7313910126686096,0.5300300121307373,3.946214437484741,0.0,0.0,3.9462132453918457,-423.3624572753906,194.04696655273438,0.09032672643661499,0.16457681357860565,0.17581528425216675
1969-12-31T19:13:09.654000,0,0,0,0,-1.4333007335662842,-1.7563319206237793,9.702895164489746,-1.4470088481903076,-1.7866235971450806,9.666056632995605,0.33250001072883606,-3.2637500762939453,0.2887499928474426,0.6142804622650146,-0.7313910126686096,0.5300300121307373,3.946214437484741,0.0,0.0,3.9462132453918457,-423.3624572753906,194.04696655273438,0.09032672643661499,0.16457681357860565,0.17581528425216675
1969-12-31T19:13:09.662000,0,0,0,0,-1.392622709274292,-1.7826528549194336,9.710074424743652,-1.4371651411056519,-1.785904884338379,9.674023628234863,-0.8925000429153442,-1.6012500524520874,0.4637500047683716,0.47094812989234924,-0.814136266708374,0.523725152015686,3.946214437484741,0.0,0.0,3.9462132453918457,-425.4444885253906,198.3629150390625,0.09815734624862671,0.1650785654783249,0.18341064453125
1969-12-31T19:13:09.663000,0,0,0,0,-1.392622709274292,-1.7826528549194336,9.710074424743652,-1.4371651411056519,-1.785904884338379,9.674023628234863,-0.8925000429153442,-1.6012500524520874,0.4637500047683716,0.47094812989234924,-0.814136266708374,0.523725152015686,3.946214437484741,0.0,0.0,3.9462132453918457,-425.4444885253906,198.3629150390625,0.09815734624862671,0.1650785654783249,0.18341064453125
1969-12-31T19:13:09.664000,0,0,0,0,-1.392622709274292,-1.7826528549194336,9.710074424743652,-1.4371651411056519,-1.785904884338379,9.674023628234863,-0.8925000429153442,-1.6012500524520874,0.4637500047683716,0.47094812989234924,-0.814136266708374,0.523725152015686,3.946214437484741,0.0,0.0,3.9462132453918457,-425.4444885253906,198.3629150390625,0.09815734624862671,0.1650785654783249,0.18341064453125
1969-12-31T19:13:09.665000,0,0,0,0,-1.392622709274292,-1.7826528549194336,9.710074424743652,-1.4371651411056519,-1.785904884338379,9.674023628234863,-0.8925000429153442,-1.6012500524520874,0.4637500047683716,0.47094812989234924,-0.814136266708374,0.523725152015686,3.946214437484741,0.0,0.0,3.9462132453918457,-425.4444885253906,198.3629150390625,0.09815734624862671,0.1650785654783249,0.18341064453125
1969-12-31T19:13:09.666000,0,0,0,0,-1.392622709274292,-1.7826528549194336,9.710074424743652,-1.4371651411056519,-1.785904884338379,9.674023628234863,-0.8925000429153442,-1.6012500524520874,0.4637500047683716,0.47094812989234924,-0.814136266708374,0.523725152015686,3.946214437484741,0.0,0.0,3.9462132453918457,-425.4444885253906,198.3629150390625,0.09815734624862671,0.1650785654783249,0.18341064453125
1969-12-31T19:13:09.674000,0,0,0,0,-1.4165509939193726,-1.7682960033416748,9.753145217895508,-1.433434009552002,-1.7827177047729492,9.68834400177002,-1.6799999475479126,0.7875000238418579,0.5425000190734863,0.26633942127227783,-0.6617807745933533,0.5255110859870911,3.946214437484741,0.0,0.0,3.9462132453918457,-427.3284912109375,202.268310546875,0.10206203907728195,0.16847734153270721,0.19780364632606506
1969-12-31T19:13:09.675000,0,0,0,0,-1.4165509939193726,-1.7682960033416748,9.753145217895508,-1.433434009552002,-1.7827177047729492,9.68834400177002,-1.6799999475479126,0.7875000238418579,0.5425000190734863,0.26633942127227783,-0.6617807745933533,0.5255110859870911,3.946214437484741,0.0,0.0,3.9462132453918457,-427.3284912109375,202.268310546875,0.10206203907728195,0.16847734153270721,0.19780364632606506
1969-12-31T19:13:09.676000,0,0,0,0,-1.4165509939193726,-1.7682960033416748,9.753145217895508,-1.433434009552002,-1.7827177047729492,9.68834400177002,-1.6799999475479126,0.7875000238418579,0.5425000190734863,0.26633942127227783,-0.6617807745933533,0.5255110859870911,3.946214437484741,0.0,0.0,3.9462132453918457,-427.3284912109375,202.268310546875,0.10206203907728195,0.16847734153270721,0.19780364632606506
1969-12-31T19:13:09.677000,0,0,0,0,-1.4165509939193726,-1.7682960033416748,9.753145217895508,-1.433434009552002,-1.7827177047729492,9.68834400177002,-1.6799999475479126,0.7875000238418579,0.5425000190734863,0.26633942127227783,-0.6617807745933533,0.5255110859870911,3.946214437484741,0.0,0.0,3.9462132453918457,-427.3284912109375,202.268310546875,0.10206203907728195,0.16847734153270721,0.19780364632606506
1969-12-31T19:13:09.678000,0,0,0,0,-1.4165509939193726,-1.7682960033416748,9.753145217895508,-1.433434009552002,-1.7827177047729492,9.68834400177002,-1.6799999475479126,0.7875000238418579,0.5425000190734863,0.26633942127227783,-0.6617807745933533,0.5255110859870911,3.946214437484741,0.0,0.0,3.9462132453918457,-427.3284912109375,202.268310546875,0.10206203907728195,0.16847734153270721,0.19780364632606506
1969-12-31T19:13:09.686000,0,0,0,0,-1.4404792785644531,-1.8041882514953613,9.640682220458984,-1.4347091913223267,-1.7866038084030151,9.679717063903809,-3.1500000953674316,3.4825000762939453,0.918749988079071,-0.05863949656486511,-0.26755648851394653,0.5629178881645203,3.946214437484741,0.0,0.0,3.9462132453918457,-429.03326416015625,205.8022003173828,0.10362783074378967,0.16649428009986877,0.19002804160118103
1969-12-31T19:13:09.687000,0,0,0,0,-1.4404792785644531,-1.8041882514953613,9.640682220458984,-1.4347091913223267,-1.7866038084030151,9.679717063903809,-3.1500000953674316,3.4825000762939453,0.918749988079071,-0.05863949656486511,-0.26755648851394653,0.5629178881645203,3.946214437484741,0.0,0.0,3.9462132453918457,-429.03326416015625,205.8022003173828,0.10362783074378967,0.16649428009986877,0.19002804160118103
1969-12-31T19:13:09.688000,0,0,0,0,-1.4404792785644531,-1.8041882514953613,9.640682220458984,-1.4347091913223267,-1.7866038084030151,9.679717063903809,-3.1500000953674316,3.4825000762939453,0.918749988079071,-0.05863949656486511,-0.26755648851394653,0.5629178881645203,3.946214437484741,0.0,0.0,3.9462132453918457,-429.03326416015625,205.8022003173828,0.10362783074378967,0.16649428009986877,0.19002804160118103
