Timestamp,sysCal,gyroCal,accelCal,magCal,rawAccelX,rawAccelY,rawAccelZ,accelX,accelY,accelZ,rawGyroX,rawGyroY,rawGyroZ,gyroX,gyroY,gyroZ,rawMagX,rawMagY,rawMagZ,magX,magY,magZ,linAccelX,linAccelY,linAccelZ
1969-12-31T19:36:13,0,0,0,0,-0.10289137810468674,0.07417750358581543,9.851250648498535,1.0917099714279175,0.045909713953733444,9.861679077148438,-0.017500000074505806,-0.6037499904632568,-0.49000000953674316,-0.11978856474161148,-0.5556051731109619,-0.5556051731109619,0.0,0.0,0.0,0.0,0.0,0.0,1.2687642574310303,-0.006688923109322786,0.05346035212278366
1969-12-31T19:36:13.011000,0,0,0,0,-0.1746760606765747,0.02153540402650833,9.956535339355469,0.8624973297119141,0.04149802774190903,9.8788480758667,-0.14000000059604645,-0.6037499904632568,-0.5249999761581421,-0.12171117216348648,-0.5567613244056702,-0.5567613244056702,0.0,0.0,0.0,0.0,0.0,0.0,1.0344586372375488,-0.011023069731891155,0.07053884118795395
1969-12-31T19:36:13.022000,0,0,0,0,6.283552169799805,0.0526420958340168,9.987641334533691,1.8436944484710693,0.043515074998140335,9.898539543151855,0.008750000037252903,-0.6650000214576721,-0.4987499713897705,-0.10930106788873672,-0.5600721836090088,-0.5600721836090088,0.0,0.0,0.0,0.0,0.0,0.0,2.0058679580688477,-0.008950391784310341,0.09006312489509583
1969-12-31T19:36:13.033000,0,0,0,0,4.914857387542725,0.05742774158716202,9.903892517089844,2.399567127227783,0.046033233404159546,9.899508476257324,-0.3412500023841858,-0.6737499833106995,-0.21875,-0.13136518001556396,-0.5450663566589355,-0.5450663566589355,0.0,0.0,0.0,0.0,0.0,0.0,2.549431562423706,-0.006371588911861181,0.09083598852157593
1969-12-31T19:36:13.044000,0,0,0,0,-1.7994027137756348,0.04307080805301666,9.719645500183105,1.6395642757415771,0.04549704119563103,9.86695384979248,-0.3062500059604645,-0.9362499713897705,-0.2800000011920929,-0.1480010747909546,-0.5533797144889832,-0.5533797144889832,0.0,0.0,0.0,0.0,0.0,0.0,1.7806615829467773,-0.006830913480371237,0.05815088376402855
1969-12-31T19:36:13.055000,0,0,0,0,-5.898308277130127,0.10767702758312225,9.858429908752441,0.27522850036621094,0.05675145983695984,9.865410804748535,-0.24500000476837158,-0.9099999666213989,-0.3149999976158142,-0.15722808241844177,-0.5611738562583923,-0.5611738562583923,0.0,0.0,0.0,0.0,0.0,0.0,0.414253294467926,0.004452686291188002,0.05657803267240524
1969-12-31T19:36:13.066000,0,0,0,0,-5.072783946990967,0.04785645380616188,9.970891952514648,-0.6927481889724731,0.05514148622751236,9.884502410888672,-0.17499999701976776,-0.7699999809265137,-0.4724999964237213,-0.15891863405704498,-0.5690940022468567,-0.5690940022468567,0.0,0.0,0.0,0.0,0.0,0.0,-0.5509908199310303,0.002882210537791252,0.07570908963680267
1969-12-31T19:36:13.077000,0,0,0,0,-0.2799602746963501,0.04307080805301666,9.889535903930664,-0.6180346012115479,0.052956722676754,9.88541316986084,-0.07000000029802322,-0.6737499833106995,-0.45499998331069946,-0.15046025812625885,-0.5684718489646912,-0.5684718489646912,0.0,0.0,0.0,0.0,0.0,0.0,-0.4739230275154114,0.0007404541247524321,0.07665244489908218
1969-12-31T19:36:13.088000,0,0,0,0,-0.1986043006181717,0.07896315306425095,9.899106979370117,-0.5421187877655029,0.057663820683956146,9.88789176940918,-0.10499999672174454,-0.7087500095367432,-0.4987499713897705,-0.1461358517408371,-0.5731227397918701,-0.5731227397918701,0.0,0.0,0.0,0.0,0.0,0.0,-0.39604148268699646,0.005463527049869299,0.07916124910116196
1969-12-31T19:36:13.099000,0,0,0,0,-0.20817558467388153,0.0813559740781784,9.903892517089844,-0.481675922870636,0.06195203959941864,9.890788078308105,-0.09624999761581421,-0.6299999952316284,-0.49000000953674316,-0.14139047265052795,-0.5713927149772644,-0.5713927149772644,0.0,0.0,0.0,0.0,0.0,0.0,-0.33393824100494385,0.00974240805953741,0.08208146691322327
1969-12-31T19:36:13.110000,0,0,0,0,-1.1389836072921753,0.06460621953010559,9.891928672790527,-0.60064697265625,0.062432438135147095,9.89099407196045,-0.12250000238418579,-0.5774999856948853,-0.5687500238418579,-0.13959351181983948,-0.5716211199760437,-0.5716211199760437,0.0,0.0,0.0,0.0,0.0,0.0,-0.4506664276123047,0.010209743864834309,0.08232229202985764
1969-12-31T19:36:13.121000,0,0,0,0,-7.252645492553711,0.09571290761232376,9.853643417358398,-1.804641842842102,0.06845612078905106,9.884233474731445,0.026249999180436134,-0.29750001430511475,-0.5600000023841858,-0.12381766736507416,-0.5527856349945068,-0.5527856349945068,0.0,0.0,0.0,0.0,0.0,0.0,-1.646555781364441,0.0161784365773201,0.07568967342376709
1969-12-31T19:36:13.132000,0,0,0,0,-1.5720844268798828,0.05503492057323456,9.7938232421875,-1.7625495195388794,0.06602691859006882,9.86786937713623,0.04374999925494194,-0.24500000476837158,-0.6299999952316284,-0.10787781327962875,-0.5375868678092957,-0.5375868678092957,0.0,0.0,0.0,0.0,0.0,0.0,-1.5965590476989746,0.013692334294319153,0.059456177055835724
1969-12-31T19:36:13.143000,0,0,0,0,2.6967110633850098,0.035892341285943985,9.860822677612305,-0.9554346799850464,0.060572635382413864,9.866594314575195,0.07874999940395355,-0.5774999856948853,-0.7087500095367432,-0.09012486040592194,-0.5515005588531494,-0.5515005588531494,0.0,0.0,0.0,0.0,0.0,0.0,-0.7854894399642944,0.008192594163119793,0.05824778974056244
1969-12-31T19:36:13.154000,0,0,0,0,4.505684852600098,0.09092725813388824,9.9350004196167,0.033014118671417236,0.06606674194335938,9.878975868225098,-0.026249999180436134,-0.7175000309944153,-0.5862500071525574,-0.08404877036809921,-0.5647335052490234,-0.5647335052490234,0.0,0.0,0.0,0.0,0.0,0.0,0.20198766887187958,0.013608943670988083,0.0706147775053978
1969-12-31T19:36:13.165000,0,0,0,0,0.5312066078186035,-0.035892341285943985,9.997213363647461,0.12318569421768188,0.04761240631341934,9.900376319885254,-0.14875000715255737,-0.6650000214576721,-0.49000000953674316,-0.09020347148180008,-0.5664165616035461,-0.5664165616035461,0.0,0.0,0.0,0.0,0.0,0.0,0.29074275493621826,-0.00482543371617794,0.0919894278049469
1969-12-31T19:36:13.176000,0,0,0,0,-0.17946171760559082,0.04307080805301666,9.863214492797852,0.06840728223323822,0.046790387481451035,9.89365005493164,-0.09624999761581421,-0.5774999856948853,-0.5512499809265137,-0.090778648853302,-0.5661473870277405,-0.5661473870277405,0.0,0.0,0.0,0.0,0.0,0.0,0.23482432961463928,-0.005623186007142067,0.08524391055107117
1969-12-31T19:36:13.187000,0,0,0,0,-0.18903300166130066,0.05503492057323456,9.846465110778809,0.021811246871948242,0.04828262701630592,9.885109901428223,-0.07000000029802322,-0.5249999761581421,-0.45499998331069946,-0.08880208432674408,-0.5561084747314453,-0.5561084747314453,0.0,0.0,0.0,0.0,0.0,0.0,0.1873319149017334,-0.004116241820156574,0.07668943703174591
1969-12-31T19:36:13.198000,0,0,0,0,-0.1339980810880661,0.08853443711996078,9.89432144165039,-0.006389845162630081,0.05556810274720192,9.8867769241333,-0.05249999836087227,-0.5950000286102295,-0.42875000834465027,-0.08534885197877884,-0.5502769351005554,-0.5502769351005554,0.0,0.0,0.0,0.0,0.0,0.0,0.1583826243877411,0.003144657239317894,0.07834266126155853
1969-12-31T19:36:13.209000,0,0,0,0,6.850651264190674,0.07178468257188797,10.06421184539795,1.2347171306610107,0.05850326269865036,9.918891906738281,-0.20999999344348907,-0.6912499666213989,-0.38499999046325684,-0.09720627963542938,-0.5486748814582825,-0.5486748814582825,0.0,0.0,0.0,0.0,0.0,0.0,1.3926537036895752,0.006051299162209034,0.11034678667783737
1969-12-31T19:36:13.221000,0,0,0,0,1.8281164169311523,0.004785645287483931,9.741181373596191,1.342120885848999,0.04878050833940506,9.886726379394531,-0.367499977350235,-0.7875000238418579,-0.29750001430511475,-0.12291794270277023,-0.5478608012199402,-0.5478608012199402,0.0,0.0,0.0,0.0,0.0,0.0,1.4927071332931519,-0.0036313573364168406,0.07806471735239029
1969-12-31T19:36:13.232000,0,0,0,0,-4.35254430770874,0.10049854964017868,9.755537986755371,0.31140100955963135,0.05814134329557419,9.862981796264648,-0.22749999165534973,-0.9099999666213989,-0.35875001549720764,-0.1328662931919098,-0.5592664480209351,-0.5592664480209351,0.0,0.0,0.0,0.0,0.0,0.0,0.4597024619579315,0.005731217563152313,0.054285455495119095
1969-12-31T19:36:13.243000,0,0,0,0,-5.929414749145508,0.10289137810468674,9.942177772521973,-0.8181707859039307,0.06624098867177963,9.87731647491455,-0.2537499964237213,-0.8399999737739563,-0.4024999737739563,-0.1443653404712677,-0.5674380660057068,-0.5674380660057068,0.0,0.0,0.0,0.0,0.0,0.0,-0.6665471196174622,0.013803353533148766,0.06867107003927231
1969-12-31T19:36:13.254000,0,0,0,0,-0.1411765217781067,-0.009571290574967861,9.93978500366211,-0.695636510848999,0.05251915752887726,9.888623237609863,-0.1574999988079071,-0.6299999952316284,-0.5074999928474426,-0.14561477303504944,-0.567611038684845,-0.567611038684845,0.0,0.0,0.0,0.0,0.0,0.0,-0.5413109660148621,0.00012355395301710814,0.08001957833766937
1969-12-31T19:36:13.265000,0,0,0,0,-0.24406792223453522,0.06699904054403305,9.851250648498535,-0.6139037609100342,0.05513998121023178,9.881858825683594,-0.09624999761581421,-0.6475000381469727,-0.4987499713897705,-0.14091895520687103,-0.5683379769325256,-0.5683379769325256,0.0,0.0,0.0,0.0,0.0,0.0,-0.45728805661201477,0.0027691388968378305,0.07329128682613373
1969-12-31T19:36:13.285000,0,0,0,0,-0.19621145725250244,0.0406779870390892,9.853643417358398,-0.5383025407791138,0.05252239853143692,9.876751899719238,-0.14875000715255737,-0.6825000047683716,-0.45499998331069946,-0.14166387915611267,-0.568392276763916,-0.568392276763916,0.0,0.0,0.0,0.0,0.0,0.0,-0.37977755069732666,0.00018977600848302245,0.06821539252996445
1969-12-31T19:36:13.296000,0,0,0,0,-5.630311965942383,0.035892341285943985,10.05224895477295,-1.4599432945251465,0.04951240122318268,9.908516883850098,-0.03500000014901161,-0.5600000023841858,-0.5337499976158142,-0.13151748478412628,-0.5655555129051208,-0.5655555129051208,0.0,0.0,0.0,0.0,0.0,0.0,-1.2950201034545898,-0.0027746884152293205,0.10008585453033447
1969-12-31T19:36:13.307000,0,0,0,0,-5.01296329498291,0.0933200865983963,9.774681091308594,-2.1030309200286865,0.057441480457782745,9.884292602539062,0.09624999761581421,-0.22749999165534973,-0.6562499403953552,-0.10985112935304642,-0.5492500066757202,-0.5492500066757202,0.0,0.0,0.0,0.0,0.0,0.0,-1.9286473989486694,0.0051424019038677216,0.07602474838495255
1969-12-31T19:36:13.318000,0,0,0,0,0.5383851528167725,0.014356935396790504,9.791430473327637,-1.624941349029541,0.04964328557252884,9.867485046386719,0.10499999672174454,-0.27125000953674316,-0.6737499833106995,-0.08941344171762466,-0.5391316413879395,-0.5391316413879395,0.0,0.0,0.0,0.0,0.0,0.0,-1.4433691501617432,-0.0026474883779883385,0.059347789734601974
1969-12-31T19:36:13.329000,0,0,0,0,2.5986053943634033,0.05982056260108948,9.89671516418457,-0.860490083694458,0.051485348492860794,9.87277603149414,0.08749999850988388,-0.5162500143051147,-0.6562499403953552,-0.07258456945419312,-0.5453435182571411,-0.5453435182571411,0.0,0.0,0.0,0.0,0.0,0.0,-0.6754834055900574,-0.000820350309368223,0.06470295041799545
1969-12-31T19:36:13.340000,0,0,0,0,4.871786594390869,0.04307080805301666,10.006784439086914,0.17703747749328613,0.04996233806014061,9.8970308303833,-0.08749999850988388,-0.7175000309944153,-0.6299999952316284,-0.07400339841842651,-0.5622720718383789,-0.5622720718383789,0.0,0.0,0.0,0.0,0.0,0.0,0.36030691862106323,-0.0023489659652113914,0.08892492949962616
1969-12-31T19:36:13.351000,0,0,0,0,-0.2392822504043579,0.0406779870390892,9.77946662902832,0.10168466717004776,0.048281893134117126,9.875752449035645,-0.07874999940395355,-0.5074999928474426,-0.4724999964237213,-0.07445491850376129,-0.5527440309524536,-0.5527440309524536,0.0,0.0,0.0,0.0,0.0,0.0,0.2836035192012787,-0.00402695219963789,0.0676221251487732
1969-12-31T19:36:13.362000,0,0,0,0,-0.11006984114646912,0.06939186155796051,9.891928672790527,0.0633576363325119,0.052102744579315186,9.878680229187012,-0.04374999925494194,-0.6037499904632568,-0.5074999928474426,-0.07153411954641342,-0.5531238317489624,-0.5531238317489624,0.0,0.0,0.0,0.0,0.0,0.0,0.24412082135677338,-0.00022511214774567634,0.0705270990729332
1969-12-31T19:36:13.373000,0,0,0,0,-0.1698903888463974,0.035892341285943985,9.884750366210938,0.021140336990356445,0.049168702214956284,9.879778861999512,-0.05249999836087227,-0.5862500071525574,-0.45499998331069946,-0.06972350180149078,-0.5488393306732178,-0.5488393306732178,0.0,0.0,0.0,0.0,0.0,0.0,0.2009652704000473,-0.0031650904566049576,0.07160922884941101
1969-12-31T19:36:13.384000,0,0,0,0,1.5744773149490356,0.05503492057323456,9.906286239624023,0.3022903800010681,0.050230473279953,9.884576797485352,-0.08749999850988388,-0.5862500071525574,-0.4724999964237213,-0.07141448557376862,-0.5462732315063477,-0.5462732315063477,0.0,0.0,0.0,0.0,0.0,0.0,0.4797869026660919,-0.00211319443769753,0.0763648971915245
1969-12-31T19:36:13.395000,0,0,0,0,5.190032482147217,0.07896315306425095,9.891928672790527,1.1869592666625977,0.05543101578950882,9.885907173156738,-0.2537499964237213,-0.6475000381469727,-0.22749999165534973,-0.08875913172960281,-0.531933069229126,-0.531933069229126,0.0,0.0,0.0,0.0,0.0,0.0,1.3578007221221924,0.0030658058822155,0.07757771015167236
1969-12-31T19:36:13.406000,0,0,0,0,-1.4524433612823486,0.038285162299871445,9.719645500183105,0.7092341184616089,0.052327658981084824,9.855813980102539,-0.33250001072883606,-0.9012499451637268,-0.2800000011920929,-0.11194495856761932,-0.5396707653999329,-0.5396707653999329,0.0,0.0,0.0,0.0,0.0,0.0,0.8757621645927429,-2.4610526452306658e-05,0.047409869730472565
1969-12-31T19:36:13.417000,0,0,0,0,-5.826523303985596,0.09092725813388824,9.832108497619629,-0.47372138500213623,0.05931408703327179,9.851523399353027,-0.2800000011920929,-0.9362499713897705,-0.3499999940395355,-0.12793117761611938,-0.5533096790313721,-0.5533096790313721,0.0,0.0,0.0,0.0,0.0,0.0,-0.3056211769580841,0.006954132579267025,0.04314624145627022
1969-12-31T19:36:13.428000,0,0,0,0,-5.182854175567627,0.05503492057323456,9.980463027954102,-1.3260624408721924,0.05853956937789917,9.874860763549805,-0.20124998688697815,-0.699999988079071,-0.41999998688697815,-0.1349056214094162,-0.5541917085647583,-0.5541917085647583,0.0,0.0,0.0,0.0,0.0,0.0,-1.1522128582000732,0.006183289457112551,0.06658405065536499
1969-12-31T19:36:13.439000,0,0,0,0,-0.12921243906021118,-0.01196411345154047,9.93260669708252,-1.1094355583190918,0.045778580009937286,9.885313034057617,-0.07874999940395355,-0.6387500166893005,-0.5862500071525574,-0.1295638233423233,-0.5618788003921509,-0.5618788003921509,0.0,0.0,0.0,0.0,0.0,0.0,-0.9309242963790894,-0.00651509827002883,0.07711958140134811
1969-12-31T19:36:13.450000,0,0,0,0,-0.24885354936122894,0.09092725813388824,9.92542839050293,-0.9536724090576172,0.05395037680864334,9.892573356628418,-0.04374999925494194,-0.6650000214576721,-0.4987499713897705,-0.12140079587697983,-0.5645149946212769,-0.5645149946212769,0.0,0.0,0.0,0.0,0.0,0.0,-0.7712842226028442,0.0016721325227990746,0.08445093035697937
1969-12-31T19:36:13.461000,0,0,0,0,-0.21296121180057526,0.08853443711996078,9.865608215332031,-0.8196055889129639,0.060210004448890686,9.88769245147705,-0.16625000536441803,-0.7087500095367432,-0.4987499713897705,-0.12566706538200378,-0.56968754529953,-0.56968754529953,0.0,0.0,0.0,0.0,0.0,0.0,-0.6340152025222778,0.007919875904917717,0.07963073998689651
1969-12-31T19:36:13.472000,0,0,0,0,-0.8135597109794617,0.062213387340307236,9.903892517089844,-0.8185113072395325,0.06057261303067207,9.890625,-0.07000000029802322,-0.612500011920929,-0.49000000953674316,-0.1203717440366745,-0.5672568082809448,-0.5672568082809448,0.0,0.0,0.0,0.0,0.0,0.0,-0.6297345757484436,0.008264497853815556,0.08262282609939575
1969-12-31T19:36:13.483000,0,0,0,0,-7.3052873611450195,0.09092725813388824,9.882357597351074,-1.9926011562347412,0.06606672704219818,9.889128684997559,0.03500000014901161,-0.3149999976158142,-0.5425000190734863,-0.1055920273065567,-0.5489966869354248,-0.5489966869354248,0.0,0.0,0.0,0.0,0.0,0.0,-1.794969081878662,0.013702512718737125,0.08130240440368652
1969-12-31T19:36:13.494000,0,0,0,0,-1.9070796966552734,0.06460621953010559,9.80817985534668,-1.9771219491958618,0.06580238044261932,9.87447738647461,0.11374999582767487,-0.27125000953674316,-0.6825000047683716,-0.08472713828086853,-0.5394884943962097,-0.5394884943962097,0.0,0.0,0.0,0.0,0.0,0.0,-1.7707161903381348,0.01336557138711214,0.06683219224214554
1969-12-31T19:36:13.505000,0,0,0,0,1.710868239402771,0.02392822690308094,9.791430473327637,-1.3096051216125488,0.058223266154527664,9.85944652557373,0.03500000014901161,-0.4375,-0.6650000214576721,-0.0733381062746048,-0.5410390496253967,-0.5410390496253967,0.0,0.0,0.0,0.0,0.0,0.0,-1.0976430177688599,0.005740715656429529,0.05191950872540474
1969-12-31T19:36:13.516000,0,0,0,0,4.378865718841553,0.07896315306425095,9.9350004196167,-0.2800062894821167,0.06197713315486908,9.87312126159668,0.07874999940395355,-0.6650000214576721,-0.6825000047683716,-0.05887074023485184,-0.558535099029541,-0.558535099029541,0.0,0.0,0.0,0.0,0.0,0.0,-0.06760400533676147,0.009418080560863018,0.06560433655977249
1969-12-31T19:36:13.527000,0,0,0,0,1.0217353105545044,-0.062213387340307236,10.006784439086914,-0.0443943589925766,0.039498962461948395,9.897314071655273,-0.20999999344348907,-0.6650000214576721,-0.42875000834465027,-0.07324689626693726,-0.5569978952407837,-0.5569978952407837,0.0,0.0,0.0,0.0,0.0,0.0,0.1672755777835846,-0.013011857867240906,0.08978094905614853
1969-12-31T19:36:13.538000,0,0,0,0,-0.12442677468061447,0.06699904054403305,9.822537422180176,-0.058880023658275604,0.044476404786109924,9.883779525756836,-0.05249999836087227,-0.5950000286102295,-0.5074999928474426,-0.07127334922552109,-0.5562401413917542,-0.5562401413917542,0.0,0.0,0.0,0.0,0.0,0.0,0.15213288366794586,-0.008013068698346615,0.07623206079006195
1969-12-31T19:36:13.549000,0,0,0,0,-0.1459621787071228,0.06699904054403305,9.844072341918945,-0.07464167475700378,0.048552945256233215,9.876592636108398,-0.08749999850988388,-0.5687500238418579,-0.5162500143051147,-0.07281690835952759,-0.5544286966323853,-0.5544286966323853,0.0,0.0,0.0,0.0,0.0,0.0,0.135796457529068,-0.003934410400688648,0.0690329298377037
1969-12-31T19:36:13.566000,0,0,0,0,1.3304094076156616,0.06699904054403305,9.961320877075195,0.17966902256011963,0.051891639828681946,9.891928672790527,0.017500000074505806,-0.49000000953674316,-0.4637500047683716,-0.06422552466392517,-0.5442043542861938,-0.5442043542861938,0.0,0.0,0.0,0.0,0.0,0.0,0.38828036189079285,-0.0006175125599838793,0.08433046191930771
1969-12-31T19:36:13.577000,0,0,0,0,5.357529640197754,0.05024927482008934,9.903892517089844,1.1168487071990967,0.05159437656402588,9.894094467163086,-0.24500000476837158,-0.6299999952316284,-0.3062500059604645,-0.08142167329788208,-0.534174382686615,-0.534174382686615,0.0,0.0,0.0,0.0,0.0,0.0,1.3190386295318604,-0.0009211936849169433,0.08636137843132019
1969-12-31T19:36:13.588000,0,0,0,0,-1.270588755607605,0.0526420958340168,9.750751495361328,0.6847286224365234,0.05178401246666908,9.868149757385254,-0.2800000011920929,-0.9099999666213989,-0.33250001072883606,-0.10031141340732574,-0.5456540584564209,-0.5456540584564209,0.0,0.0,0.0,0.0,0.0,0.0,0.8826141953468323,-0.0007231924100778997,0.06032935902476311
1969-12-31T19:36:13.599000,0,0,0,0,-5.783452033996582,0.08614161610603333,9.824929237365723,-0.48599565029144287,0.05800265073776245,9.860326766967773,-0.2800000011920929,-0.9099999666213989,-0.367499977350235,-0.1174042671918869,-0.5579274296760559,-0.5579274296760559,0.0,0.0,0.0,0.0,0.0,0.0,-0.2865951657295227,0.0054880245588719845,0.05253602936863899
1969-12-31T19:36:13.610000,0,0,0,0,-5.185246467590332,0.07417750358581543,9.963713645935059,-1.336548089981079,0.06093025952577591,9.879039764404297,-0.19249999523162842,-0.7875000238418579,-0.4112500250339508,-0.12454774230718613,-0.5633916854858398,-0.5633916854858398,0.0,0.0,0.0,0.0,0.0,0.0,-1.1314692497253418,0.008401402272284031,0.07136683911085129
1969-12-31T19:36:13.621000,0,0,0,0,-0.1818545162677765,-0.0406779870390892,9.93978500366211,-1.1275514364242554,0.04253942519426346,9.890034675598145,-0.16625000536441803,-0.6650000214576721,-0.5425000190734863,-0.12851466238498688,-0.5687123537063599,-0.5687123537063599,0.0,0.0,0.0,0.0,0.0,0.0,-0.9178422689437866,-0.009908954612910748,0.0824597179889679
1969-12-31T19:36:13.632000,0,0,0,0,-0.1866401731967926,0.09092725813388824,9.908679008483887,-0.957248866558075,0.05129750072956085,9.893409729003906,-0.08749999850988388,-0.699999988079071,-0.4724999964237213,-0.12461314350366592,-0.5710244178771973,-0.5710244178771973,0.0,0.0,0.0,0.0,0.0,0.0,-0.743762731552124,-0.0011169805657118559,0.08591476827859879
1969-12-31T19:36:13.643000,0,0,0,0,-0.20817558467388153,0.06939186155796051,9.860822677612305,-0.8216685056686401,0.05457253381609917,9.887511253356934,-0.14000000059604645,-0.6562499403953552,-0.4724999964237213,-0.1260768175125122,-0.5701478123664856,-0.5701478123664856,0.0,0.0,0.0,0.0,0.0,0.0,-0.6050817370414734,0.002176819369196892,0.08008478581905365
1969-12-31T19:36:13.654000,0,0,0,0,-0.7154539823532104,0.07178468257188797,9.903892517089844,-0.8024439215660095,0.05768788978457451,9.89047622680664,-0.10499999672174454,-0.6387500166893005,-0.5249999761581421,-0.1240718886256218,-0.5716938972473145,-0.5716938972473145,0.0,0.0,0.0,0.0,0.0,0.0,-0.5828647017478943,0.005293979309499264,0.08311673253774643
1969-12-31T19:36:13.665000,0,0,0,0,-7.300501823425293,0.0813559740781784,9.889535903930664,-1.9785759449005127,0.0619717538356781,9.89030647277832,0.05249999836087227,-0.32375001907348633,-0.5512499809265137,-0.10727550834417343,-0.5540024042129517,-0.5540024042129517,0.0,0.0,0.0,0.0,0.0,0.0,-1.750321388244629,0.009545434266328812,0.08314550668001175
1969-12-31T19:36:13.676000,0,0,0,0,-2.076970100402832,0.07657032459974289,9.803394317626953,-1.996385097503662,0.06461405754089355,9.8745756149292,0.13124999403953552,-0.20124998688697815,-0.6825000047683716,-0.08458579331636429,-0.5392200350761414,-0.5392200350761414,0.0,0.0,0.0,0.0,0.0,0.0,-1.7593741416931152,0.012122949585318565,0.06762261688709259
1969-12-31T19:36:13.687000,0,0,0,0,1.6462620496749878,0.0526420958340168,9.853643417358398,-1.3370752334594727,0.062447164207696915,9.870786666870117,0.12250000238418579,-0.3762499988079071,-0.6562499403953552,-0.06488677859306335,-0.5361917614936829,-0.5361917614936829,0.0,0.0,0.0,0.0,0.0,0.0,-1.094487190246582,0.009884531609714031,0.06396997720003128
1969-12-31T19:36:13.698000,0,0,0,0,4.328616142272949,0.11724831163883209,9.966106414794922,-0.3115994930267334,0.07236602902412415,9.888039588928223,-0.008750000037252903,-0.7087500095367432,-0.6037499904632568,-0.05954677239060402,-0.5520197153091431,-0.5520197153091431,0.0,0.0,0.0,0.0,0.0,0.0,-0.06852131336927414,0.019678331911563873,0.08123575150966644
1969-12-31T19:36:13.709000,0,0,0,0,1.31365966796875,-0.0406779870390892,9.987641334533691,-0.017431706190109253,0.051905348896980286,9.90606689453125,-0.23624999821186066,-0.6650000214576721,-0.4987499713897705,-0.07635565102100372,-0.555955708026886,-0.555955708026886,0.0,0.0,0.0,0.0,0.0,0.0,0.224670872092247,-0.0007906027603894472,0.09923961013555527
1969-12-31T19:36:13.720000,0,0,0,0,-0.12203396111726761,0.08853443711996078,9.81775188446045,-0.03636445105075836,0.058535121381282806,9.890082359313965,-0.04374999925494194,-0.5950000286102295,-0.5425000190734863,-0.0732540413737297,-0.5576424598693848,-0.5576424598693848,0.0,0.0,0.0,0.0,0.0,0.0,0.2048584669828415,0.005794933065772057,0.08323229849338531
1969-12-31T19:36:13.730000,0,0,0,0,-0.17228323221206665,0.04785645380616188,9.846465110778809,-0.0609654039144516,0.05660231038928032,9.882187843322754,-0.17499999701976776,-0.5425000190734863,-0.5162500143051147,-0.08293261379003525,-0.553915798664093,-0.553915798664093,0.0,0.0,0.0,0.0,0.0,0.0,0.17950618267059326,0.003835635259747505,0.07532063871622086
1969-12-31T19:36:13.741000,0,0,0,0,-0.1698903888463974,-0.019142581149935722,9.906286239624023,-0.08068054914474487,0.04289267957210541,9.886549949645996,-0.1574999988079071,-0.5950000286102295,-0.49000000953674316,-0.09002582728862762,-0.5524107813835144,-0.5524107813835144,0.0,0.0,0.0,0.0,0.0,0.0,0.15914122760295868,-0.00982614979147911,0.07966507971286774
1969-12-31T19:36:13.752000,0,0,0,0,5.735595703125,0.05503492057323456,9.920642852783203,0.9720506072044373,0.04509039595723152,9.892720222473145,-0.11374999582767487,-0.6562499403953552,-0.5774999856948853,-0.09228258579969406,-0.5609094500541687,-0.5609094500541687,0.0,0.0,0.0,0.0,0.0,0.0,1.2060216665267944,-0.007590447086840868,0.08569551259279251
1969-12-31T19:36:13.763000,0,0,0,0,2.368894338607788,0.02871387079358101,9.753145217895508,1.224875807762146,0.042126286774873734,9.867457389831543,-0.2887499928474426,-0.6387500166893005,-0.32375001907348633,-0.11097152531147003,-0.5504075288772583,-0.5504075288772583,0.0,0.0,0.0,0.0,0.0,0.0,1.4517816305160522,-0.010487490333616734,0.06026593968272209
1969-12-31T19:36:13.774000,0,0,0,0,-3.9912283420562744,0.0933200865983963,9.698110580444336,0.28077423572540283,0.05139223486185074,9.836806297302246,-0.24500000476837158,-0.9099999666213989,-0.3149999976158142,-0.12372097373008728,-0.5585935115814209,-0.5585935115814209,0.0,0.0,0.0,0.0,0.0,0.0,0.5052708387374878,-0.0011898509692400694,0.029559148475527763
1969-12-31T19:36:13.785000,0,0,0,0,-5.979663372039795,0.08374879509210587,9.942177772521973,-0.852349042892456,0.057248689234256744,9.855877876281738,-0.1837499886751175,-0.875,-0.3762499988079071,-0.12943123281002045,-0.5674306154251099,-0.5674306154251099,0.0,0.0,0.0,0.0,0.0,0.0,-0.6246263384819031,0.004675325471907854,0.04870511591434479
1969-12-31T19:36:13.796000,0,0,0,0,-1.825723648071289,0.07417750358581543,9.868000030517578,-1.0285273790359497,0.06031276285648346,9.858072280883789,-0.07000000029802322,-0.612500011920929,-0.5249999761581421,-0.1237778440117836,-0.5676045417785645,-0.5676045417785645,0.0,0.0,0.0,0.0,0.0,0.0,-0.7967237234115601,0.007728449534624815,0.05099473521113396
1969-12-31T19:36:13.807000,0,0,0,0,-0.2153540551662445,0.08614161610603333,9.927821159362793,-0.8813450932502747,0.06498771905899048,9.870697021484375,-0.026249999180436134,-0.5950000286102295,-0.5425000190734863,-0.1145005151629448,-0.5677555799484253,-0.5677555799484253,0.0,0.0,0.0,0.0,0.0,0.0,-0.6462050676345825,0.012361811473965645,0.0636991336941719
1969-12-31T19:36:13.818000,0,0,0,0,-0.2225324958562851,0.10049854964017868,9.911070823669434,-0.7621017098426819,0.07141508907079697,9.878005027770996,-0.12250000238418579,-0.7262499332427979,-0.48125001788139343,-0.11526146531105042,-0.5725009441375732,-0.5725009441375732,0.0,0.0,0.0,0.0,0.0,0.0,-0.5242321491241455,0.018716882914304733,0.07107343524694443
1969-12-31T19:36:13.829000,0,0,0,0,-0.16031910479068756,0.02871387079358101,9.89432144165039,-0.6531805992126465,0.06368627399206161,9.880958557128906,-0.17499999701976776,-0.73499995470047,-0.5687500238418579,-0.12094409018754959,-0.5829652547836304,-0.5829652547836304,0.0,0.0,0.0,0.0,0.0,0.0,-0.4131391942501068,0.010959538631141186,0.07407987117767334
1969-12-31T19:36:13.847000,0,0,0,0,-7.307680606842041,0.09092725813388824,9.903892517089844,-1.8576282262802124,0.0686168223619461,9.885109901428223,-0.03500000014901161,-0.38499999046325684,-0.6037499904632568,-0.11276866495609283,-0.5712859034538269,-0.5712859034538269,0.0,0.0,0.0,0.0,0.0,0.0,-1.609566330909729,0.015832306817173958,0.07843148708343506
1969-12-31T19:36:13.858000,0,0,0,0,-2.1990041732788086,0.0526420958340168,9.796216011047363,-1.9194164276123047,0.06572543829679489,9.869020462036133,0.07874999940395355,-0.27125000953674316,-0.6912499666213989,-0.0945504754781723,-0.5594159960746765,-0.5594159960746765,0.0,0.0,0.0,0.0,0.0,0.0,-1.663045048713684,0.012881710194051266,0.0625564306974411
1969-12-31T19:36:13.869000,0,0,0,0,2.5004994869232178,0.016749760136008263,9.868000030517578,-1.1194229125976562,0.05686096474528313,9.86883544921875,0.09624999761581421,-0.42875000834465027,-0.7087500095367432,-0.07640060037374496,-0.5606465339660645,-0.5606465339660645,0.0,0.0,0.0,0.0,0.0,0.0,-0.8586262464523315,0.003985659219324589,0.062488049268722534
1969-12-31T19:36:13.880000,0,0,0,0,4.287938594818115,0.08374879509210587,9.93978500366211,-0.1407042145729065,0.06172759458422661,9.88167667388916,0.008750000037252903,-0.7524999976158142,-0.5774999856948853,-0.06830065697431564,-0.5744040012359619,-0.5744040012359619,0.0,0.0,0.0,0.0,0.0,0.0,0.11964860558509827,0.008789701387286186,0.07531674206256866
1969-12-31T19:36:13.891000,0,0,0,0,1.4931213855743408,-0.04307080805301666,10.028319358825684,0.1550140678882599,0.042759351432323456,9.908218383789062,-0.14000000059604645,-0.6562499403953552,-0.4724999964237213,-0.07512105256319046,-0.5730817914009094,-0.5730817914009094,0.0,0.0,0.0,0.0,0.0,0.0,0.4134586751461029,-0.010140487924218178,0.10180843621492386
1969-12-31T19:36:13.902000,0,0,0,0,-0.11006984114646912,0.09092725813388824,9.81057357788086,0.10703454911708832,0.051477618515491486,9.890544891357422,-0.061250001192092896,-0.5162500143051147,-0.5774999856948853,-0.07380156964063644,-0.5696268081665039,-0.5696268081665039,0.0,0.0,0.0,0.0,0.0,0.0,0.3638169765472412,-0.0014292348641902208,0.08409138023853302
1969-12-31T19:36:13.913000,0,0,0,0,-0.1866401731967926,0.08614161610603333,9.848858833312988,0.053880173712968826,0.05775171518325806,9.882999420166016,-0.13124999403953552,-0.5600000023841858,-0.4375,-0.07926634699106216,-0.5602827072143555,-0.5602827072143555,0.0,0.0,0.0,0.0,0.0,0.0,0.3092774450778961,0.004810936748981476,0.07650978863239288
1969-12-31T19:36:14,0,0,0,0,-0.1339980810880661,-0.02153540402650833,9.899106979370117,0.019874688237905502,0.043400947004556656,9.88591480255127,-0.14000000059604645,-0.6037499904632568,-0.4724999964237213,-0.08504363149404526,-0.5573615431785583,-0.5573615431785583,0.0,0.0,0.0,0.0,0.0,0.0,0.2740628123283386,-0.009497399441897869,0.07939409464597702
1969-12-31T19:36:14.010000,0,0,0,0,6.991827964782715,0.05742774158716202,10.078569412231445,1.2817806005477905,0.04593976214528084,9.920784950256348,-0.3062500059604645,-0.6912499666213989,-0.45499998331069946,-0.106085866689682,-0.5594397187232971,-0.5594397187232971,0.0,0.0,0.0,0.0,0.0,0.0,1.5285807847976685,-0.006911449134349823,0.11407530307769775
1969-12-31T19:36:14.021000,0,0,0,0,2.579463005065918,0.035892341285943985,9.719645500183105,1.516657829284668,0.04412120580673218,9.884379386901855,-0.3149999976158142,-0.73499995470047,-0.2537499964237213,-0.12595880031585693,-0.5508618950843811,-0.5508618950843811,0.0,0.0,0.0,0.0,0.0,0.0,1.7549515962600708,-0.008658839389681816,0.07745891064405441
1969-12-31T19:36:14.032000,0,0,0,0,-3.8500516414642334,0.08614161610603333,9.738787651062012,0.5452970266342163,0.05172679200768471,9.858027458190918,-0.27125000953674316,-0.9625000357627869,-0.3149999976158142,-0.13977961242198944,-0.5624486804008484,-0.5624486804008484,0.0,0.0,0.0,0.0,0.0,0.0,0.7798256278038025,-0.001007997547276318,0.05101567506790161
1969-12-31T19:36:14.043000,0,0,0,0,-6.02512788772583,0.08374879509210587,9.908679008483887,-0.6439331769943237,0.057522691786289215,9.867195129394531,-0.20124998688697815,-0.8837499618530273,-0.4112500250339508,-0.1456269770860672,-0.5736614465713501,-0.5736614465713501,0.0,0.0,0.0,0.0,0.0,0.0,-0.40725719928741455,0.0048103355802595615,0.060235053300857544
1969-12-31T19:36:14.057000,0,0,0,0,-0.20338992774486542,-0.016749760136008263,9.966106414794922,-0.564195990562439,0.04407956451177597,9.88509750366211,-0.07000000029802322,-0.6475000381469727,-0.5337499976158142,-0.13843296468257904,-0.5758978724479675,-0.5758978724479675,0.0,0.0,0.0,0.0,0.0,0.0,-0.3257823586463928,-0.00854934100061655,0.07817897200584412
1969-12-31T19:36:14.068000,0,0,0,0,-0.27038899064064026,0.11724831163883209,9.81775188446045,-0.5110176801681519,0.057322923094034195,9.872908592224121,-0.008750000037252903,-0.6650000214576721,-0.5512499809265137,-0.12609688937664032,-0.5801465511322021,-0.5801465511322021,0.0,0.0,0.0,0.0,0.0,0.0,-0.27113649249076843,0.004700645338743925,0.06602568924427032
1969-12-31T19:36:14.079000,0,0,0,0,-0.2105683833360672,0.08853443711996078,9.90149974822998,-0.45663711428642273,0.06297212839126587,9.878083229064941,-0.16625000536441803,-0.6825000047683716,-0.4724999964237213,-0.12991644442081451,-0.579797625541687,-0.579797625541687,0.0,0.0,0.0,0.0,0.0,0.0,-0.21556435525417328,0.010331789031624794,0.07122969627380371
1969-12-31T19:36:14.090000,0,0,0,0,-0.17946171760559082,0.04307080805301666,9.89671516418457,-0.40646907687187195,0.05937004089355469,9.881455421447754,-0.19249999523162842,-0.6650000214576721,-0.5249999761581421,-0.13586969673633575,-0.5818018317222595,-0.5818018317222595,0.0,0.0,0.0,0.0,0.0,0.0,-0.16446037590503693,0.006734824739396572,0.07462504506111145
1969-12-31T19:36:14.101000,0,0,0,0,-4.711467742919922,0.0263210479170084,9.930213928222656,-1.1856629848480225,0.05338825657963753,9.890280723571777,-0.09624999761581421,-0.5425000190734863,-0.4987499713897705,-0.1321008801460266,-0.5737365484237671,-0.5737365484237671,0.0,0.0,0.0,0.0,0.0,0.0,-0.9388816952705383,0.000785334559623152,0.08356860280036926
1969-12-31T19:36:14.112000,0,0,0,0,-2.447857618331909,0.0526420958340168,9.781858444213867,-1.4141169786453247,0.05325320363044739,9.870656967163086,0.07000000029802322,-0.2800000011920929,-0.6737499833106995,-0.1128760576248169,-0.5609667301177979,-0.5609667301177979,0.0,0.0,0.0,0.0,0.0,0.0,-1.1614468097686768,0.0006663225940428674,0.06409496814012527
1969-12-31T19:36:14.123000,0,0,0,0,1.600798487663269,0.05024927482008934,9.824929237365723,-0.8684249520301819,0.05270950123667717,9.862380027770996,0.017500000074505806,-0.4462500214576721,-0.6212499737739563,-0.100474052131176,-0.5573785901069641,-0.5573785901069641,0.0,0.0,0.0,0.0,0.0,0.0,-0.6125472784042358,0.0001302626042161137,0.05590102821588516
1969-12-31T19:36:14.134000,0,0,0,0,3.3930225372314453,0.08853443711996078,9.872786521911621,-0.09711378812789917,0.059193722903728485,9.864263534545898,0.07874999940395355,-0.6650000214576721,-0.6562499403953552,-0.08342538774013519,-0.5709901452064514,-0.5709901452064514,0.0,0.0,0.0,0.0,0.0,0.0,0.15812088549137115,0.006575123406946659,0.05776841938495636
1969-12-31T19:36:14.145000,0,0,0,0,4.816751956939697,0.06939186155796051,9.985248565673828,0.7922834157943726,0.06103955954313278,9.886161804199219,-0.09624999761581421,-0.699999988079071,-0.5950000286102295,-0.0846453309059143,-0.5810768604278564,-0.5810768604278564,0.0,0.0,0.0,0.0,0.0,0.0,1.0424679517745972,0.008373833261430264,0.07953623682260513
1969-12-31T19:36:14.156000,0,0,0,0,-0.18424734473228455,0.10289137810468674,9.7938232421875,0.6155338287353516,0.06861463189125061,9.8694486618042,-0.08749999850988388,-0.4987499713897705,-0.4462500214576721,-0.08491688221693039,-0.5667625665664673,-0.5667625665664673,0.0,0.0,0.0,0.0,0.0,0.0,0.8615618944168091,0.015863541513681412,0.06271913647651672
1969-12-31T19:36:14.167000,0,0,0,0,-0.1627119481563568,0.07896315306425095,9.82971477508545,0.474673330783844,0.07048768550157547,9.86225700378418,-0.05249999836087227,-0.5337499976158142,-0.4724999964237213,-0.08183322846889496,-0.5583728551864624,-0.5583728551864624,0.0,0.0,0.0,0.0,0.0,0.0,0.7172611355781555,0.017638973891735077,0.05544211342930794
1969-12-31T19:36:14.177000,0,0,0,0,-0.12681959569454193,0.004785645287483931,9.911070823669434,0.36580464243888855,0.05859578400850296,9.871091842651367,-0.10499999672174454,-0.5950000286102295,-0.42875000834465027,-0.08403696119785309,-0.5522428154945374,-0.5522428154945374,0.0,0.0,0.0,0.0,0.0,0.0,0.6055106520652771,0.0057108537293970585,0.06420623511075974
1969-12-31T19:36:14.188000,0,0,0,0,5.417350769042969,0.05503492057323456,9.93978500366211,1.2801216840744019,0.05795127525925636,9.883524894714355,-0.07874999940395355,-0.5774999856948853,-0.49000000953674316,-0.08353403955698013,-0.5498048067092896,-0.5498048067092896,0.0,0.0,0.0,0.0,0.0,0.0,1.5124790668487549,0.005032666958868504,0.07646264135837555
1969-12-31T19:36:14.205000,0,0,0,0,2.7349963188171387,0.014356935396790504,9.755537986755371,1.5434503555297852,0.050060808658599854,9.860359191894531,-0.32375001907348633,-0.73499995470047,-0.3062500059604645,-0.10638456046581268,-0.5459578633308411,-0.5459578633308411,0.0,0.0,0.0,0.0,0.0,0.0,1.7672055959701538,-0.0028342008590698242,0.05309658870100975
1969-12-31T19:36:14.216000,0,0,0,0,-3.713660955429077,0.0813559740781784,9.748359680175781,0.5919265151023865,0.05572515353560448,9.840087890625,-0.3062500059604645,-0.9099999666213989,-0.3062500059604645,-0.1253967434167862,-0.5541536808013916,-0.5541536808013916,0.0,0.0,0.0,0.0,0.0,0.0,0.8117347955703735,0.002841722220182419,0.03273603692650795
1969-12-31T19:36:14.227000,0,0,0,0,-6.068198204040527,0.062213387340307236,9.985248565673828,-0.6135391592979431,0.056899506598711014,9.866361618041992,-0.27125000953674316,-0.8837499618530273,-0.4112500250339508,-0.13927102088928223,-0.5664600133895874,-0.5664600133895874,0.0,0.0,0.0,0.0,0.0,0.0,-0.3916792571544647,0.004035270307213068,0.05905592814087868
1969-12-31T19:36:14.238000,0,0,0,0,-0.20578275620937347,-0.04307080805301666,9.978071212768555,-0.539736270904541,0.03880513459444046,9.886580467224121,-0.12250000238418579,-0.6825000047683716,-0.5337499976158142,-0.1376756727695465,-0.5719529390335083,-0.5719529390335083,0.0,0.0,0.0,0.0,0.0,0.0,-0.3162080943584442,-0.013950894586741924,0.07931087166070938
1969-12-31T19:36:14.249000,0,0,0,0,-0.2871387302875519,0.10767702758312225,9.853643417358398,-0.49401676654815674,0.05127077177166939,9.880619049072266,-0.08749999850988388,-0.6387500166893005,-0.5162500143051147,-0.13290271162986755,-0.5726842284202576,-0.5726842284202576,0.0,0.0,0.0,0.0,0.0,0.0,-0.2690518796443939,-0.0014434684999287128,0.07338333874940872
1969-12-31T19:36:14.260000,0,0,0,0,-0.21296121180057526,0.08853443711996078,9.89671516418457,-0.44314640760421753,0.05801539868116379,9.883532524108887,-0.14000000059604645,-0.7612499594688416,-0.4987499713897705,-0.1335778385400772,-0.5802404880523682,-0.5802404880523682,0.0,0.0,0.0,0.0,0.0,0.0,-0.2170092910528183,0.005310107953846455,0.0763237401843071
1969-12-31T19:36:14.271000,0,0,0,0,-0.14835500717163086,0.02392822690308094,9.848858833312988,-0.3897899091243744,0.05184570699930191,9.877256393432617,-0.10499999672174454,-0.6387500166893005,-0.5249999761581421,-0.130859375,-0.5804559588432312,-0.5804559588432312,0.0,0.0,0.0,0.0,0.0,0.0,-0.16274835169315338,-0.0008225345518440008,0.07006726413965225
1969-12-31T19:36:14.282000,0,0,0,0,-4.421936511993408,0.02871387079358101,10.037891387939453,-1.119598150253296,0.047658905386924744,9.906331062316895,-0.04374999925494194,-0.5249999761581421,-0.5425000190734863,-0.12257310748100281,-0.5742984414100647,-0.5742984414100647,0.0,0.0,0.0,0.0,0.0,0.0,-0.8880663514137268,-0.004957705270498991,0.09924820065498352
1969-12-31T19:36:14.293000,0,0,0,0,-2.6057839393615723,0.05982056260108948,9.803394317626953,-1.3885940313339233,0.04986013472080231,9.887700080871582,0.12250000238418579,-0.20999999344348907,-0.6737499833106995,-0.09926055371761322,-0.5568403005599976,-0.5568403005599976,0.0,0.0,0.0,0.0,0.0,0.0,-1.1512548923492432,-0.0027362594846636057,0.08075548708438873
1969-12-31T19:36:14.304000,0,0,0,0,1.5050854682922363,0.02871387079358101,9.7938232421875,-0.8648453950881958,0.04603271558880806,9.870708465576172,0.09624999761581421,-0.4024999737739563,-0.6737499833106995,-0.08066263794898987,-0.5543729662895203,-0.5543729662895203,0.0,0.0,0.0,0.0,0.0,0.0,-0.6242667436599731,-0.00654090428724885,0.06384237855672836
1969-12-31T19:36:14.315000,0,0,0,0,3.3571300506591797,0.11246266961097717,9.875179290771484,-0.10067856311798096,0.05805636942386627,9.8715181350708,0.11374999582767487,-0.5950000286102295,-0.6825000047683716,-0.0621691569685936,-0.5654968619346619,-0.5654968619346619,0.0,0.0,0.0,0.0,0.0,0.0,0.13932976126670837,0.005429770797491074,0.06463848799467087
1969-12-31T19:36:14.326000,0,0,0,0,4.800002574920654,0.07417750358581543,9.975677490234375,0.7863322496414185,0.060974255204200745,9.89037036895752,-0.14000000059604645,-0.7262499332427979,-0.5687500238418579,-0.0695728063583374,-0.5763077735900879,-0.5763077735900879,0.0,0.0,0.0,0.0,0.0,0.0,1.0213751792907715,0.008286912925541401,0.08337056636810303
1969-12-31T19:36:14.337000,0,0,0,0,-0.14835500717163086,0.11006984114646912,9.841679573059082,0.6171562075614929,0.06986042857170105,9.88155746459961,-0.17499999701976776,-0.5687500238418579,-0.5162500143051147,-0.07960155606269836,-0.5718507170677185,-0.5718507170677185,0.0,0.0,0.0,0.0,0.0,0.0,0.8480837941169739,0.017076516523957253,0.0744607076048851
1969-12-31T19:36:14.348000,0,0,0,0,-0.09571290761232376,0.031106693670153618,9.82971477508545,0.4881287217140198,0.0628461018204689,9.872174263000488,-0.07874999940395355,-0.612500011920929,-0.49000000953674316,-0.07952055335044861,-0.5691348314285278,-0.5691348314285278,0.0,0.0,0.0,0.0,0.0,0.0,0.7155923843383789,0.010000173933804035,0.06499692052602768
1969-12-31T19:36:14.359000,0,0,0,0,-0.12203396111726761,0.0,9.891928672790527,0.3776908218860626,0.05147111788392067,9.875749588012695,-0.09624999761581421,-0.6212499737739563,-0.4724999964237213,-0.08111193776130676,-0.5662001967430115,-0.5662001967430115,0.0,0.0,0.0,0.0,0.0,0.0,0.602252721786499,-0.0013787646312266588,0.06850408762693405
1969-12-31T19:36:14.370000,0,0,0,0,5.201996803283691,0.04546362906694412,9.908679008483887,1.2508779764175415,0.05038377642631531,9.881710052490234,-0.026249999180436134,-0.6299999952316284,-0.5162500143051147,-0.07589320093393326,-0.5671131610870361,-0.5671131610870361,0.0,0.0,0.0,0.0,0.0,0.0,1.4682658910751343,-0.002469835802912712,0.07430403679609299
1969-12-31T19:36:14.381000,0,0,0,0,5.891129493713379,0.0263210479170084,9.93978500366211,2.0907516479492188,0.04602848365902901,9.892221450805664,-0.27125000953674316,-0.6737499833106995,-0.27125000953674316,-0.09447649866342545,-0.5546397566795349,-0.5546397566795349,0.0,0.0,0.0,0.0,0.0,0.0,2.2970287799835205,-0.006792899686843157,0.08457554131746292
1969-12-31T19:36:14.392000,0,0,0,0,-0.5766702890396118,0.05024927482008934,9.69093132019043,1.6079550981521606,0.04679243639111519,9.855788230895996,-0.2887499928474426,-0.8399999737739563,-0.3149999976158142,-0.11295674741268158,-0.557653546333313,-0.557653546333313,0.0,0.0,0.0,0.0,0.0,0.0,1.8053942918777466,-0.005985514726489782,0.04796026274561882
1969-12-31T19:36:14.404000,0,0,0,0,-5.539384365081787,0.08853443711996078,9.920642852783203,0.31430482864379883,0.05434763431549072,9.86752700805664,-0.24500000476837158,-0.8662499785423279,-0.3499999940395355,-0.1255173534154892,-0.564307451248169,-0.564307451248169,0.0,0.0,0.0,0.0,0.0,0.0,0.5092611908912659,0.0015872648218646646,0.0596480630338192
1969-12-31T19:36:14.415000,0,0,0,0,-2.510071039199829,0.06460621953010559,9.877572059631348,-0.19690001010894775,0.0562044121325016,9.869344711303711,-0.13124999403953552,-0.6387500166893005,-0.45499998331069946,-0.12606267631053925,-0.5620092153549194,-0.5620092153549194,0.0,0.0,0.0,0.0,0.0,0.0,-0.0018736041383817792,0.003452967619523406,0.061468299478292465
1969-12-31T19:36:14.426000,0,0,0,0,-0.20338992774486542,0.09092725813388824,9.90149974822998,-0.19807466864585876,0.062489159405231476,9.875164985656738,-0.04374999925494194,-0.6562499403953552,-0.42875000834465027,-0.11823268979787827,-0.5594372153282166,-0.5594372153282166,0.0,0.0,0.0,0.0,0.0,0.0,-0.0029710654634982347,0.009708751924335957,0.06728894263505936
1969-12-31T19:36:14.437000,0,0,0,0,-0.23449662327766418,0.08853443711996078,9.91825008392334,-0.20466694235801697,0.06720329076051712,9.882963180541992,-0.07000000029802322,-0.7087500095367432,-0.5162500143051147,-0.1136445626616478,-0.566432774066925,-0.566432774066925,0.0,0.0,0.0,0.0,0.0,0.0,-0.009460531175136566,0.014367012307047844,0.07509034126996994
1969-12-31T19:36:14.448000,0,0,0,0,-0.24646073579788208,0.07417750358581543,9.875179290771484,-0.21223151683807373,0.06846560537815094,9.88155460357666,-0.14875000715255737,-0.699999988079071,-0.49000000953674316,-0.11698396503925323,-0.5701989531517029,-0.5701989531517029,0.0,0.0,0.0,0.0,0.0,0.0,-0.016888225451111794,0.015570242889225483,0.07368511706590652
1969-12-31T19:36:14.459000,0,0,0,0,-0.4043870270252228,0.05742774158716202,10.023533821105957,-0.2470111846923828,0.0664677768945694,9.907252311706543,-0.14875000715255737,-0.6825000047683716,-0.5074999928474426,-0.12000570446252823,-0.5734686255455017,-0.5734686255455017,0.0,0.0,0.0,0.0,0.0,0.0,-0.05136477202177048,0.013526974245905876,0.09938903898000717
1969-12-31T19:36:14.470000,0,0,0,0,-5.936593055725098,0.11964112520217896,9.796216011047363,-1.2768110036849976,0.07609201967716217,9.887154579162598,0.09624999761581421,-0.22749999165534973,-0.6475000381469727,-0.09943440556526184,-0.5555431246757507,-0.5555431246757507,0.0,0.0,0.0,0.0,0.0,0.0,-1.0757747888565063,0.023041147738695145,0.07940114289522171
1969-12-31T19:36:14.487000,0,0,0,0,1.466800332069397,0.04307080805301666,9.789037704467773,-0.7802243232727051,0.07011526077985764,9.86939525604248,0.07874999940395355,-0.42875000834465027,-0.6737499833106995,-0.08248463273048401,-0.5549771189689636,-0.5549771189689636,0.0,0.0,0.0,0.0,0.0,0.0,-0.5762408971786499,0.016968559473752975,0.06170308217406273
1969-12-31T19:36:14.498000,0,0,0,0,3.3260233402252197,0.08853443711996078,9.906286239624023,-0.03700387477874756,0.07344908267259598,9.876072883605957,0.14875000715255737,-0.5862500071525574,-0.7437500357627869,-0.06048846244812012,-0.5694820284843445,-0.5694820284843445,0.0,0.0,0.0,0.0,0.0,0.0,0.16621530055999756,0.0201713927090168,0.06836523115634918
1969-12-31T19:36:14.509000,0,0,0,0,4.881358623504639,0.05503492057323456,9.966106414794922,0.8532072901725769,0.07011616230010986,9.89236831665039,-0.14875000715255737,-0.6475000381469727,-0.612500011920929,-0.06888433545827866,-0.5774604678153992,-0.5774604678153992,0.0,0.0,0.0,0.0,0.0,0.0,1.0512585639953613,0.016732092946767807,0.08455537259578705
1969-12-31T19:36:14.520000,0,0,0,0,-0.19381862878799438,0.0406779870390892,9.81057357788086,0.6636982560157776,0.06478792428970337,9.8775634765625,-0.07874999940395355,-0.6212499737739563,-0.4637500047683716,-0.06982280313968658,-0.5728514194488525,-0.5728514194488525,0.0,0.0,0.0,0.0,0.0,0.0,0.8575294613838196,0.011324247345328331,0.06966719776391983
1969-12-31T19:36:14.531000,0,0,0,0,-0.1698903888463974,0.07657032459974289,9.824929237365723,0.512820839881897,0.06692051142454147,9.868037223815918,-0.12250000238418579,-0.5862500071525574,-0.4724999964237213,-0.0748337134718895,-0.5671196579933167,-0.5671196579933167,0.0,0.0,0.0,0.0,0.0,0.0,0.7031941413879395,0.013370630331337452,0.06007334217429161
1969-12-31T19:36:14.542000,0,0,0,0,-0.13639087975025177,0.009571290574967861,9.911070823669434,0.39531517028808594,0.05654044821858406,9.875825881958008,-0.10499999672174454,-0.5687500238418579,-0.4375,-0.07770327478647232,-0.558682918548584,-0.558682918548584,0.0,0.0,0.0,0.0,0.0,0.0,0.5828335881233215,0.002958716591820121,0.06780768185853958
1969-12-31T19:36:14.553000,0,0,0,0,5.0225348472595215,0.07178468257188797,9.899106979370117,1.2328301668167114,0.059299614280462265,9.880040168762207,-0.08749999850988388,-0.6212499737739563,-0.5162500143051147,-0.07863518595695496,-0.5600101351737976,-0.5600101351737976,0.0,0.0,0.0,0.0,0.0,0.0,1.4133929014205933,0.005672866478562355,0.07189108431339264
1969-12-31T19:36:14.564000,0,0,0,0,5.979663372039795,0.05742774158716202,10.001997947692871,2.0919950008392334,0.05896081030368805,9.902113914489746,-0.2800000011920929,-0.6299999952316284,-0.3149999976158142,-0.09778998792171478,-0.5484731793403625,-0.5484731793403625,0.0,0.0,0.0,0.0,0.0,0.0,2.26157808303833,0.00530721852555871,0.09376932680606842
1969-12-31T19:36:14.575000,0,0,0,0,-0.4331009089946747,0.04307080805301666,9.734003067016602,1.6349589824676514,0.056084759533405304,9.871685981750488,-0.29750001430511475,-0.9012499451637268,-0.2887499928474426,-0.1167873814702034,-0.5546070337295532,-0.5546070337295532,0.0,0.0,0.0,0.0,0.0,0.0,1.7957141399383545,0.002433484885841608,0.06319229304790497
1969-12-31T19:36:14.586000,0,0,0,0,-6.051448345184326,0.07657032459974289,9.90149974822998,0.24373877048492432,0.059792593121528625,9.877081871032715,-0.23624999821186066,-0.918749988079071,-0.38499999046325684,-0.12815125286579132,-0.5674304366111755,-0.5674304366111755,0.0,0.0,0.0,0.0,0.0,0.0,0.4024870991706848,0.006135412026196718,0.06855616718530655
1969-12-31T19:36:14.597000,0,0,0,0,-2.737389087677002,0.007178467698395252,9.889535903930664,-0.29583775997161865,0.05026957020163536,9.8793363571167,-0.11374999582767487,-0.6562499403953552,-0.4375,-0.12678132951259613,-0.5647205114364624,-0.5647205114364624,0.0,0.0,0.0,0.0,0.0,0.0,-0.136405348777771,-0.003347153542563319,0.07082045078277588
1969-12-31T19:36:14.608000,0,0,0,0,-0.22492533922195435,0.05742774158716202,9.942177772521973,-0.2830027937889099,0.05156518146395683,9.890710830688477,-0.03500000014901161,-0.6650000214576721,-0.5337499976158142,-0.11805064231157303,-0.5692892074584961,-0.5692892074584961,0.0,0.0,0.0,0.0,0.0,0.0,-0.12295803427696228,-0.00202476535923779,0.08220566064119339
1969-12-31T19:36:14.619000,0,0,0,0,-0.1818545162677765,0.09571290761232376,9.90149974822998,-0.2646952271461487,0.05955580621957779,9.892663955688477,-0.08749999850988388,-0.6825000047683716,-0.5512499809265137,-0.1151445135474205,-0.5755627155303955,-0.5755627155303955,0.0,0.0,0.0,0.0,0.0,0.0,-0.10413669794797897,0.005950523540377617,0.08416714519262314
1969-12-31T19:36:14.630000,0,0,0,0,-0.21296121180057526,0.06699904054403305,9.913464546203613,-0.25533151626586914,0.06090301275253296,9.896429061889648,-0.16625000536441803,-0.6475000381469727,-0.5249999761581421,-0.12000592052936554,-0.576971709728241,-0.576971709728241,0.0,0.0,0.0,0.0,0.0,0.0,-0.09430917352437973,0.0072800819762051105,0.08794063329696655
1969-12-31T19:36:14.641000,0,0,0,0,-3.871586799621582,0.009571290574967861,9.980463027954102,-0.9098645448684692,0.05161210149526596,9.911639213562012,-0.13124999403953552,-0.6387500166893005,-0.49000000953674316,-0.12107551097869873,-0.575311005115509,-0.575311005115509,0.0,0.0,0.0,0.0,0.0,0.0,-0.7451528906822205,-0.0019807000644505024,0.10321061313152313
1969-12-31T19:36:14.652000,0,0,0,0,-6.082555294036865,0.0813559740781784,9.798608779907227,-1.8461084365844727,0.05699566751718521,9.891180992126465,0.07000000029802322,-0.2537499964237213,-0.6212499737739563,-0.1028994768857956,-0.5571426153182983,-0.5571426153182983,0.0,0.0,0.0,0.0,0.0,0.0,-1.6731735467910767,0.003390875179320574,0.0828947201371193
1969-12-31T19:36:14.663000,0,0,0,0,-0.05982056260108948,0.04785645380616188,9.77228832244873,-1.5227948427200317,0.05534149333834648,9.869661331176758,0.07874999940395355,-0.33250001072883606,-0.6562499403953552,-0.08562009036540985,-0.5488675832748413,-0.5488675832748413,0.0,0.0,0.0,0.0,0.0,0.0,-1.343184471130371,0.0017176056280732155,0.06149521470069885
1969-12-31T19:36:14.674000,0,0,0,0,2.2755744457244873,0.0406779870390892,9.822537422180176,-0.8352996110916138,0.05268743634223938,9.86113166809082,0.10499999672174454,-0.5074999928474426,-0.7262499332427979,-0.06748737394809723,-0.5578333735466003,-0.5578333735466003,0.0,0.0,0.0,0.0,0.0,0.0,-0.6523950099945068,-0.0009579997276887298,0.053025022149086
1969-12-31T19:36:14.685000,0,0,0,0,4.06540584564209,0.07417750358581543,9.93978500366211,0.05171561241149902,0.056577082723379135,9.875368118286133,0.026249999180436134,-0.7087500095367432,-0.6475000381469727,-0.05857061594724655,-0.5736920833587646,-0.5736920833587646,0.0,0.0,0.0,0.0,0.0,0.0,0.23348431289196014,0.002883515553548932,0.06724201142787933
1969-12-31T19:36:14.696000,0,0,0,0,2.5674986839294434,0.10289137810468674,9.844072341918945,0.5070659518241882,0.06495985388755798,9.86970329284668,-0.1574999988079071,-0.699999988079071,-0.5337499976158142,-0.06798126548528671,-0.5793851017951965,-0.5793851017951965,0.0,0.0,0.0,0.0,0.0,0.0,0.6854366660118103,0.011184345930814743,0.06151524931192398
1969-12-31T19:36:14.707000,0,0,0,0,-0.06939186155796051,0.033499520272016525,9.91825008392334,0.4027285575866699,0.0592656135559082,9.878490447998047,-0.08749999850988388,-0.6212499737739563,-0.49000000953674316,-0.06983797997236252,-0.5762526988983154,-0.5762526988983154,0.0,0.0,0.0,0.0,0.0,0.0,0.5782346129417419,0.00543845072388649,0.07024966925382614
1969-12-31T19:36:14.718000,0,0,0,0,-0.2273181676864624,0.04307080805301666,9.863214492797852,0.2886916995048523,0.056334394961595535,9.875725746154785,-0.16625000536441803,-0.5774999856948853,-0.4987499713897705,-0.07900916039943695,-0.5712261199951172,-0.5712261199951172,0.0,0.0,0.0,0.0,0.0,0.0,0.4619123637676239,0.0024779646191745996,0.06744629889726639
1969-12-31T19:36:14.729000,0,0,0,0,0.24646073579788208,0.06699904054403305,9.91825008392334,0.2810479998588562,0.05826466903090477,9.8834228515625,-0.03500000014901161,-0.612500011920929,-0.4637500047683716,-0.0748227909207344,-0.5668622255325317,-0.5668622255325317,0.0,0.0,0.0,0.0,0.0,0.0,0.45203402638435364,0.004365939646959305,0.07510281354188919
1969-12-31T19:36:14.740000,0,0,0,0,7.118647575378418,0.0023928226437419653,10.078569412231445,1.5186362266540527,0.04815200716257095,9.918744087219238,-0.17499999701976776,-0.7087500095367432,-0.39375001192092896,-0.08435213565826416,-0.564803957939148,-0.564803957939148,0.0,0.0,0.0,0.0,0.0,0.0,1.6813703775405884,-0.005730839446187019,0.11028488725423813
1969-12-31T19:36:14.751000,0,0,0,0,3.2446677684783936,0.016749760136008263,9.78664493560791,1.8310434818267822,0.04246827960014343,9.894834518432617,-0.3762499988079071,-0.7262499332427979,-0.2887499928474426,-0.11211888492107391,-0.5572492480278015,-0.5572492480278015,0.0,0.0,0.0,0.0,0.0,0.0,1.9840611219406128,-0.011348660103976727,0.0862182229757309
1969-12-31T19:36:14.768000,0,0,0,0,-6.082555294036865,0.08614161610603333,9.913464546203613,0.39870214462280273,0.05037304386496544,9.89820671081543,-0.21875,-0.9099999666213989,-0.38499999046325684,-0.12226215749979019,-0.569147527217865,-0.569147527217865,0.0,0.0,0.0,0.0,0.0,0.0,0.5489734411239624,-0.003407323732972145,0.08954784274101257
1969-12-31T19:36:14.779000,0,0,0,0,-2.9551360607147217,-0.0023928226437419653,9.91825008392334,-0.2083340287208557,0.04082255810499191,9.901834487915039,-0.11374999582767487,-0.6650000214576721,-0.5162500143051147,-0.1214524358510971,-0.5719790458679199,-0.5719790458679199,0.0,0.0,0.0,0.0,0.0,0.0,-0.05779266729950905,-0.012874402105808258,0.09317933022975922
1969-12-31T19:36:14.790000,0,0,0,0,-0.2153540551662445,0.06699904054403305,9.911070823669434,-0.2096046358346939,0.045560434460639954,9.9035062789917,-0.05249999836087227,-0.6562499403953552,-0.49000000953674316,-0.114893339574337,-0.5721301436424255,-0.5721301436424255,0.0,0.0,0.0,0.0,0.0,0.0,-0.05878814682364464,-0.008082488551735878,0.09485500305891037
1969-12-31T19:36:14.801000,0,0,0,0,-0.21296121180057526,0.07896315306425095,9.906286239624023,-0.21021217107772827,0.05160624161362648,9.904009819030762,-0.08749999850988388,-0.6650000214576721,-0.5249999761581421,-0.11228755116462708,-0.5751451849937439,-0.5751451849937439,0.0,0.0,0.0,0.0,0.0,0.0,-0.059121113270521164,-0.0020149906631559134,0.09536267071962357
1969-12-31T19:36:14.812000,0,0,0,0,-0.23688945174217224,0.10049854964017868,9.848858833312988,-0.2150406837463379,0.060455624014139175,9.894027709960938,-0.14000000059604645,-0.6475000381469727,-0.4724999964237213,-0.11492369323968887,-0.5731484889984131,-0.5731484889984131,0.0,0.0,0.0,0.0,0.0,0.0,-0.06364928930997849,0.0068140593357384205,0.08538534492254257
1969-12-31T19:36:14.823000,0,0,0,0,-3.5341989994049072,0.02153540402650833,10.033105850219727,-0.8157998919487,0.05341116338968277,9.919200897216797,-0.11374999582767487,-0.5687500238418579,-0.4987499713897705,-0.11481204628944397,-0.5679543614387512,-0.5679543614387512,0.0,0.0,0.0,0.0,0.0,0.0,-0.6611441373825073,-0.0002148570929421112,0.11060935258865356
1969-12-31T19:36:14.834000,0,0,0,0,-6.26440954208374,0.09571290761232376,9.796216011047363,-1.801984429359436,0.061067670583724976,9.896941184997559,0.03500000014901161,-0.23624999821186066,-0.612500011920929,-0.10056119412183762,-0.5490254759788513,-0.5490254759788513,0.0,0.0,0.0,0.0,0.0,0.0,-1.6392781734466553,0.00740740867331624,0.08848046511411667
1969-12-31T19:36:14.845000,0,0,0,0,-0.22013968229293823,0.031106693670153618,9.805787086486816,-1.5156745910644531,0.05564481019973755,9.88044261932373,0.061250001192092896,-0.3062500059604645,-0.6912499666213989,-0.08516892045736313,-0.5423973798751831,-0.5423973798751831,0.0,0.0,0.0,0.0,0.0,0.0,-1.3462942838668823,0.0019634885247796774,0.07209432125091553
1969-12-31T19:36:14.856000,0,0,0,0,2.258824348449707,0.01196411345154047,9.824929237365723,-0.8324998617172241,0.04773871600627899,9.870394706726074,0.10499999672174454,-0.5162500143051147,-0.6562499403953552,-0.06707912683486938,-0.5481787323951721,-0.5481787323951721,0.0,0.0,0.0,0.0,0.0,0.0,-0.659799337387085,-0.005940131843090057,0.06210434064269066
1969-12-31T19:36:14.867000,0,0,0,0,4.106083869934082,0.08374879509210587,9.946964263916016,0.06137126684188843,0.05425645038485527,9.88425350189209,0.03500000014901161,-0.6650000214576721,-0.6562499403953552,-0.05736885964870453,-0.5630031228065491,-0.5630031228065491,0.0,0.0,0.0,0.0,0.0,0.0,0.2329327017068863,0.0005397173226810992,0.07594364881515503
1969-12-31T19:36:14.878000,0,0,0,0,-0.16031910479068756,0.062213387340307236,9.827322959899902,0.021245870739221573,0.05569663643836975,9.87394905090332,-0.20999999344348907,-0.6562499403953552,-0.5337499976158142,-0.07188788056373596,-0.567221462726593,-0.567221462726593,0.0,0.0,0.0,0.0,0.0,0.0,0.19186776876449585,0.0019472151761874557,0.06562282145023346
1969-12-31T19:36:14.889000,0,0,0,0,-0.07657032459974289,0.04307080805301666,9.891928672790527,0.003541387617588043,0.053411394357681274,9.877202987670898,-0.008750000037252903,-0.5774999856948853,-0.5512499809265137,-0.0658818930387497,-0.5668461918830872,-0.5668461918830872,0.0,0.0,0.0,0.0,0.0,0.0,0.1733154058456421,-0.00036430853651836514,0.06886111199855804
1969-12-31T19:36:14.900000,0,0,0,0,-0.17706887423992157,0.016749760136008263,9.841679573059082,-0.029148612171411514,0.046775732189416885,9.870773315429688,-0.07000000029802322,-0.5162500143051147,-0.4987499713897705,-0.06627362966537476,-0.5590222477912903,-0.5590222477912903,0.0,0.0,0.0,0.0,0.0,0.0,0.1399497091770172,-0.006993068847805262,0.06242077425122261
1969-12-31T19:36:14.911000,0,0,0,0,0.20099709928035736,0.06939186155796051,9.9350004196167,0.012507177889347076,0.05086919292807579,9.88239860534668,-0.03500000014901161,-0.5774999856948853,-0.4112500250339508,-0.06329873204231262,-0.550499439239502,-0.550499439239502,0.0,0.0,0.0,0.0,0.0,0.0,0.18073223531246185,-0.002915494842454791,0.074031300842762
1969-12-31T19:36:14.921000,0,0,0,0,7.054040908813477,0.0526420958340168,10.071390151977539,1.2870069742202759,0.051190085709095,9.916605949401855,-0.20124998688697815,-0.6825000047683716,-0.42875000834465027,-0.0764213278889656,-0.5511751770973206,-0.5511751770973206,0.0,0.0,0.0,0.0,0.0,0.0,1.4481101036071777,-0.002600802108645439,0.10811858624219894
1969-12-31T19:36:14.932000,0,0,0,0,3.445664882659912,0.031106693670153618,9.791430473327637,1.6777186393737793,0.047555044293403625,9.893949508666992,-0.33250001072883606,-0.699999988079071,-0.2800000011920929,-0.10078078508377075,-0.5431101322174072,-0.5431101322174072,0.0,0.0,0.0,0.0,0.0,0.0,1.8298460245132446,-0.006204717792570591,0.08531908690929413
1969-12-31T19:36:14.943000,0,0,0,0,-3.335594892501831,0.07657032459974289,9.774681091308594,0.7703216671943665,0.052806735038757324,9.87236213684082,-0.2887499928474426,-0.9099999666213989,-0.29750001430511475,-0.11866133660078049,-0.5511046051979065,-0.5511046051979065,0.0,0.0,0.0,0.0,0.0,0.0,0.9178786873817444,-0.0009327760199084878,0.06366204470396042
1969-12-31T19:36:14.954000,0,0,0,0,-5.529813289642334,0.0526420958340168,9.958928108215332,-0.3699868321418762,0.05277693644165993,9.888030052185059,-0.16625000536441803,-0.7699999809265137,-0.4024999737739563,-0.12318820506334305,-0.5557380318641663,-0.5557380318641663,0.0,0.0,0.0,0.0,0.0,0.0,-0.22133316099643707,-0.0009375421795994043,0.0793461799621582
1969-12-31T19:36:14.965000,0,0,0,0,-0.17706887423992157,0.004785645287483931,9.903892517089844,-0.3350691795349121,0.044090636074543,9.890901565551758,-0.14000000059604645,-0.6212499737739563,-0.5512499809265137,-0.12478742748498917,-0.559760570526123,-0.559760570526123,0.0,0.0,0.0,0.0,0.0,0.0,-0.18549978733062744,-0.009554268792271614,0.08223136514425278
1969-12-31T19:36:14.976000,0,0,0,0,-0.26560330390930176,0.06699904054403305,9.877572059631348,-0.3224960267543793,0.04823699966073036,9.88848876953125,-0.13124999403953552,-0.6387500166893005,-0.49000000953674316,-0.12540218234062195,-0.5603688955307007,-0.5603688955307007,0.0,0.0,0.0,0.0,0.0,0.0,-0.17207661271095276,-0.005358661059290171,0.07983113825321198
1969-12-31T19:36:14.987000,0,0,0,0,-0.20338992774486542,0.10767702758312225,9.906286239624023,-0.30093812942504883,0.05899549275636673,9.89171028137207,-0.12250000238418579,-0.7087500095367432,-0.4724999964237213,-0.12512610852718353,-0.5643576979637146,-0.5643576979637146,0.0,0.0,0.0,0.0,0.0,0.0,-0.14978250861167908,0.0053954035975039005,0.08306298404932022
1969-12-31T19:36:15,0,0,0,0,-0.16031910479068756,0.04546362906694412,9.872786521911621,-0.27548643946647644,0.05654625967144966,9.888284683227539,-0.1574999988079071,-0.699999988079071,-0.5162500143051147,-0.12820567190647125,-0.5701277852058411,-0.5701277852058411,0.0,0.0,0.0,0.0,0.0,0.0,-0.12372791767120361,0.0029565473087131977,0.07964770495891571
1969-12-31T19:36:15.011000,0,0,0,0,-7.037291526794434,0.08853443711996078,9.954142570495605,-1.4993560314178467,0.062336038798093796,9.9002046585083,-0.12250000238418579,-0.5950000286102295,-0.5074999928474426,-0.12766292691230774,-0.5676389932632446,-0.5676389932632446,0.0,0.0,0.0,0.0,0.0,0.0,-1.3410003185272217,0.008728927001357079,0.09167232364416122
1969-12-31T19:36:15.022000,0,0,0,0,-3.3714871406555176,0.014356935396790504,9.812965393066406,-1.8382070064544678,0.05365194380283356,9.884414672851562,0.10499999672174454,-0.23624999821186066,-0.6912499666213989,-0.10553088784217834,-0.5539427399635315,-0.5539427399635315,0.0,0.0,0.0,0.0,0.0,0.0,-1.6716357469558716,5.1108127081533894e-05,0.07601828128099442
1969-12-31T19:36:15.033000,0,0,0,0,1.2131611108779907,0.04307080805301666,9.820144653320312,-1.285917043685913,0.05173678696155548,9.872781753540039,0.09624999761581421,-0.3762499988079071,-0.6650000214576721,-0.08633650094270706,-0.5495502948760986,-0.5495502948760986,0.0,0.0,0.0,0.0,0.0,0.0,-1.1137977838516235,-0.001864967169240117,0.06448057293891907
1969-12-31T19:36:15.059000,0,0,0,0,3.153740167617798,0.0526420958340168,10.028319358825684,-0.48235034942626953,0.05190064385533333,9.900933265686035,-0.16625000536441803,-0.7087500095367432,-0.5074999928474426,-0.09393826127052307,-0.5572724938392639,-0.5572724938392639,0.0,0.0,0.0,0.0,0.0,0.0,-0.30866819620132446,-0.0016955421306192875,0.0926596000790596
1969-12-31T19:36:15.070000,0,0,0,0,-0.20099709928035736,0.0023928226437419653,9.803394317626953,-0.43142613768577576,0.04293985292315483,9.883278846740723,-0.05249999836087227,-0.5862500071525574,-0.5162500143051147,-0.08999644964933395,-0.5564785003662109,-0.5564785003662109,0.0,0.0,0.0,0.0,0.0,0.0,-0.2564341723918915,-0.010610058903694153,0.07502900063991547
1969-12-31T19:36:15.081000,0,0,0,0,-0.1579263061285019,0.07657032459974289,9.870393753051758,-0.3819233477115631,0.04902688413858414,9.88094711303711,-0.07874999940395355,-0.5249999761581421,-0.48125001788139343,-0.08892663568258286,-0.5494446158409119,-0.5494446158409119,0.0,0.0,0.0,0.0,0.0,0.0,-0.2058652639389038,-0.004508165176957846,0.0727158933877945
1969-12-31T19:36:15.092000,0,0,0,0,0.11246266961097717,0.04785645380616188,9.942177772521973,-0.2924407422542572,0.0488150380551815,9.892029762268066,-0.08749999850988388,-0.6037499904632568,-0.4375,-0.08879092335700989,-0.5456451773643494,-0.5456451773643494,0.0,0.0,0.0,0.0,0.0,0.0,-0.11576295644044876,-0.004704026505351067,0.08380965143442154
1969-12-31T19:36:15.103000,0,0,0,0,7.020541667938232,0.02153540402650833,10.045069694519043,1.0311905145645142,0.0438774935901165,9.919729232788086,-0.20124998688697815,-0.6387500166893005,-0.45499998331069946,-0.09948857873678207,-0.5458073019981384,-0.5458073019981384,0.0,0.0,0.0,0.0,0.0,0.0,1.2019615173339844,-0.00959237664937973,0.11140462756156921
1969-12-31T19:36:15.114000,0,0,0,0,3.594019889831543,-0.004785645287483931,9.803394317626953,1.49505615234375,0.03506958857178688,9.898673057556152,-0.3499999940395355,-0.6737499833106995,-0.2537499964237213,-0.12331844866275787,-0.5349892377853394,-0.5349892377853394,0.0,0.0,0.0,0.0,0.0,0.0,1.6576985120773315,-0.01828915625810623,0.09020888805389404
1969-12-31T19:36:15.125000,0,0,0,0,-3.1680972576141357,0.07178468257188797,9.717252731323242,0.6510371565818787,0.041714929044246674,9.865836143493652,-0.3062500059604645,-0.9449999928474426,-0.32375001907348633,-0.14071980118751526,-0.5480918288230896,-0.5480918288230896,0.0,0.0,0.0,0.0,0.0,0.0,0.8096606731414795,-0.01155071146786213,0.05730618163943291
1969-12-31T19:36:15.136000,0,0,0,0,-6.058627128601074,0.08853443711996078,9.92542839050293,-0.563395082950592,0.05018914118409157,9.876622200012207,-0.21875,-0.8925000429153442,-0.32375001907348633,-0.14814241230487823,-0.5560063123703003,-0.5560063123703003,0.0,0.0,0.0,0.0,0.0,0.0,-0.40275320410728455,-0.0030186581425368786,0.06812475621700287
1969-12-31T19:36:15.147000,0,0,0,0,-3.3858442306518555,0.05024927482008934,9.879964828491211,-1.0742511749267578,0.050200026482343674,9.877226829528809,-0.14000000059604645,-0.6825000047683716,-0.45499998331069946,-0.14736786484718323,-0.5576863884925842,-0.5576863884925842,0.0,0.0,0.0,0.0,0.0,0.0,-0.9090831279754639,-0.002950521418824792,0.06880373507738113
1969-12-31T19:36:15.158000,0,0,0,0,-0.27278175950050354,0.10289137810468674,9.877572059631348,-0.9291872382164001,0.05973702669143677,9.877289772033691,-0.05249999836087227,-0.6475000381469727,-0.48125001788139343,-0.13834357261657715,-0.5585681796073914,-0.5585681796073914,0.0,0.0,0.0,0.0,0.0,0.0,-0.7602211236953735,0.006588764023035765,0.06893177330493927
1969-12-31T19:36:15.169000,0,0,0,0,-0.1986043006181717,0.10049854964017868,9.91825008392334,-0.796953558921814,0.06711475551128387,9.884703636169434,-0.14000000059604645,-0.7262499332427979,-0.48125001788139343,-0.1385011374950409,-0.56452476978302,-0.56452476978302,0.0,0.0,0.0,0.0,0.0,0.0,-0.6248615980148315,0.0139327272772789,0.07639982551336288
1969-12-31T19:36:15.180000,0,0,0,0,-0.19381862878799438,0.05742774158716202,9.920642852783203,-0.687787652015686,0.06536143273115158,9.89120864868164,-0.16625000536441803,-0.6737499833106995,-0.4724999964237213,-0.14114074409008026,-0.5656585693359375,-0.5656585693359375,0.0,0.0,0.0,0.0,0.0,0.0,-0.51312255859375,0.012156968005001545,0.08295102417469025
1969-12-31T19:36:15.191000,0,0,0,0,-3.0388848781585693,0.016749760136008263,9.980463027954102,-1.1133302450180054,0.056562844663858414,9.907363891601562,-0.16625000536441803,-0.6037499904632568,-0.4637500047683716,-0.1435292661190033,-0.5614519119262695,-0.5614519119262695,0.0,0.0,0.0,0.0,0.0,0.0,-0.934016764163971,0.003382455324754119,0.09918849170207977
1969-12-31T19:36:15.202000,0,0,0,0,-6.5180487632751465,0.05503492057323456,9.81057357788086,-2.0915706157684326,0.056286294013261795,9.88984489440918,0.0,-0.24500000476837158,-0.5862500071525574,-0.1298760622739792,-0.5422267317771912,-0.5422267317771912,0.0,0.0,0.0,0.0,0.0,0.0,-1.9029182195663452,0.0031198414508253336,0.08184576034545898
1969-12-31T19:36:15.213000,0,0,0,0,1.1772687435150146,0.02392822690308094,9.805787086486816,-1.4999189376831055,0.050429567694664,9.87463092803955,0.07000000029802322,-0.41999998688697815,-0.6825000047683716,-0.11086287349462509,-0.5434163212776184,-0.5434163212776184,0.0,0.0,0.0,0.0,0.0,0.0,-1.3047564029693604,-0.0027108588255941868,0.06675926595926285
1969-12-31T19:36:15.224000,0,0,0,0,3.046063184738159,0.08853443711996078,9.899106979370117,-0.6771076917648315,0.05732645094394684,9.879060745239258,0.16625000536441803,-0.612500011920929,-0.6650000214576721,-0.08450254052877426,-0.5559846758842468,-0.5559846758842468,0.0,0.0,0.0,0.0,0.0,0.0,-0.4794936180114746,0.004155478905886412,0.07123809307813644
1969-12-31T19:36:15.235000,0,0,0,0,4.785645484924316,0.08374879509210587,9.978071212768555,0.3116368055343628,0.062108829617500305,9.896981239318848,-0.07874999940395355,-0.7262499332427979,-0.6212499737739563,-0.08395533263683319,-0.5715103149414062,-0.5715103149414062,0.0,0.0,0.0,0.0,0.0,0.0,0.5067758560180664,0.008883447386324406,0.08910922706127167
1969-12-31T19:36:15.246000,0,0,0,0,-0.2153540551662445,0.02871387079358101,9.89432144165039,0.21625278890132904,0.0560644268989563,9.896499633789062,-0.11374999582767487,-0.5687500238418579,-0.5074999928474426,-0.08678954839706421,-0.5671089291572571,-0.5671089291572571,0.0,0.0,0.0,0.0,0.0,0.0,0.409401535987854,0.0028171006124466658,0.08858883380889893
1969-12-31T19:36:15.257000,0,0,0,0,-0.08614161610603333,0.0406779870390892,9.856036186218262,0.16152016818523407,0.05327951908111572,9.889175415039062,-0.017500000074505806,-0.612500011920929,-0.5074999928474426,-0.08019838482141495,-0.5661717057228088,-0.5661717057228088,0.0,0.0,0.0,0.0,0.0,0.0,0.35295701026916504,1.820711804612074e-05,0.08122985810041428
1969-12-31T19:36:15.268000,0,0,0,0,-0.1818545162677765,0.031106693670153618,9.93978500366211,0.09937022626399994,0.04926629364490509,9.898335456848145,-0.061250001192092896,-0.5600000023841858,-0.45499998331069946,-0.07839592546224594,-0.5584366917610168,-0.5584366917610168,0.0,0.0,0.0,0.0,0.0,0.0,0.28941652178764343,-0.003990482538938522,0.09036391228437424
1969-12-31T19:36:15.279000,0,0,0,0,4.077369689941406,0.0933200865983963,9.889535903930664,0.8193780183792114,0.057239919900894165,9.896742820739746,-0.061250001192092896,-0.5950000286102295,-0.48125001788139343,-0.07676491886377335,-0.5557588934898376,-0.5557588934898376,0.0,0.0,0.0,0.0,0.0,0.0,1.0044854879379272,0.003946141805499792,0.08867673575878143
1969-12-31T19:36:15.290000,0,0,0,0,6.381657600402832,0.035892341285943985,10.013962745666504,1.8261364698410034,0.05337606370449066,9.917959213256836,-0.26249998807907104,-0.6475000381469727,-0.4024999737739563,-0.09443295001983643,-0.5517037510871887,-0.5517037510871887,0.0,0.0,0.0,0.0,0.0,0.0,2.001497507095337,7.924305100459605e-05,0.10971444845199585
1969-12-31T19:36:15.301000,0,0,0,0,0.2512463927268982,0.031106693670153618,9.707681655883789,1.5410853624343872,0.049345362931489944,9.879899978637695,-0.3149999976158142,-0.8225000500679016,-0.24500000476837158,-0.11541436612606049,-0.5493367910385132,-0.5493367910385132,0.0,0.0,0.0,0.0,0.0,0.0,1.7080549001693726,-0.003918108064681292,0.07150831073522568
1969-12-31T19:36:15.312000,0,0,0,0,-5.266602516174316,0.0933200865983963,9.77707290649414,0.30891120433807373,0.05730467662215233,9.861288070678711,-0.24500000476837158,-0.9537500143051147,-0.3499999940395355,-0.12774118781089783,-0.5628549456596375,-0.5628549456596375,0.0,0.0,0.0,0.0,0.0,0.0,0.47352761030197144,0.004045582842081785,0.05285662040114403
1969-12-31T19:36:15.323000,0,0,0,0,-5.659025192260742,0.062213387340307236,9.93260669708252,-0.7712701559066772,0.058193139731884,9.874197006225586,-0.20124998688697815,-0.7787500023841858,-0.41999998688697815,-0.13473370671272278,-0.5676695704460144,-0.5676695704460144,0.0,0.0,0.0,0.0,0.0,0.0,-0.6036389470100403,0.004940966609865427,0.06581711769104004
1969-12-31T19:36:15.340000,0,0,0,0,-0.27756744623184204,0.0813559740781784,9.868000030517578,-0.6819112300872803,0.06238555535674095,9.873075485229492,-0.061250001192092896,-0.6475000381469727,-0.48125001788139343,-0.12774357199668884,-0.5672352313995361,-0.5672352313995361,0.0,0.0,0.0,0.0,0.0,0.0,-0.511716365814209,0.009113514795899391,0.06473835557699203
1969-12-31T19:36:15.351000,0,0,0,0,-0.19142581522464752,0.0933200865983963,9.92542839050293,-0.5931346416473389,0.06798462569713593,9.882551193237305,-0.14000000059604645,-0.6825000047683716,-0.5074999928474426,-0.12890946865081787,-0.5708956122398376,-0.5708956122398376,0.0,0.0,0.0,0.0,0.0,0.0,-0.4208304286003113,0.014666397124528885,0.07425224035978317
1969-12-31T19:36:15.362000,0,0,0,0,-0.17228323221206665,0.04785645380616188,9.899106979370117,-0.5169615745544434,0.0643414780497551,9.885547637939453,-0.20999999344348907,-0.6912499666213989,-0.5337499976158142,-0.13662320375442505,-0.5763805508613586,-0.5763805508613586,0.0,0.0,0.0,0.0,0.0,0.0,-0.3429379165172577,0.011002101935446262,0.07727792114019394
1969-12-31T19:36:15.373000,0,0,0,0,-2.746960401535034,0.031106693670153618,9.951749801635742,-0.9205856919288635,0.05832606554031372,9.897529602050781,-0.12250000238418579,-0.5950000286102295,-0.5249999761581421,-0.13527972996234894,-0.5742210149765015,-0.5742210149765015,0.0,0.0,0.0,0.0,0.0,0.0,-0.7428609728813171,0.004995004273951054,0.08932715654373169
1969-12-31T19:36:15.384000,0,0,0,0,-6.640082836151123,0.1052841916680336,9.784252166748047,-1.9558000564575195,0.06682536751031876,9.877026557922363,0.10499999672174454,-0.21875,-0.6475000381469727,-0.11242314428091049,-0.5556195378303528,-0.5556195378303528,0.0,0.0,0.0,0.0,0.0,0.0,-1.7693678140640259,0.013441859744489193,0.06898632645606995
1969-12-31T19:36:15.395000,0,0,0,0,1.0743772983551025,0.033499520272016525,9.81775188446045,-1.4073456525802612,0.060793474316596985,9.866297721862793,0.08749999850988388,-0.367499977350235,-0.6475000381469727,-0.09340547770261765,-0.5492756962776184,-0.5492756962776184,0.0,0.0,0.0,0.0,0.0,0.0,-1.2148427963256836,0.007370277773588896,0.05837453156709671
1969-12-31T19:36:15.406000,0,0,0,0,3.046063184738159,0.05503492057323456,9.858429908752441,-0.6012899875640869,0.05975119024515152,9.864873886108398,0.07874999940395355,-0.612500011920929,-0.7175000309944153,-0.07702920585870743,-0.5645322799682617,-0.5645322799682617,0.0,0.0,0.0,0.0,0.0,0.0,-0.40670520067214966,0.006279375869780779,0.05699208751320839
1969-12-31T19:36:15.417000,0,0,0,0,4.890929222106934,0.07657032459974289,9.970891952514648,0.3927876949310303,0.06279540807008743,9.884062767028809,-0.05249999836087227,-0.7262499332427979,-0.5337499976158142,-0.07469587028026581,-0.5731632709503174,-0.5731632709503174,0.0,0.0,0.0,0.0,0.0,0.0,0.5845015645027161,0.00925819855183363,0.07612528651952744
1969-12-31T19:36:15.428000,0,0,0,0,-0.22971096634864807,0.05024927482008934,9.882357597351074,0.2801170349121094,0.0605245903134346,9.883753776550293,-0.17499999701976776,-0.6037499904632568,-0.42875000834465027,-0.08423729240894318,-0.5656600594520569,-0.5656600594520569,0.0,0.0,0.0,0.0,0.0,0.0,0.46953466534614563,0.006941437255591154,0.07577182352542877
1969-12-31T19:36:15.439000,0,0,0,0,-0.06939186155796051,0.02153540402650833,9.848858833312988,0.21685680747032166,0.05346764624118805,9.877437591552734,-0.12250000238418579,-0.5774999856948853,-0.5774999856948853,-0.08787702769041061,-0.5672209858894348,-0.5672209858894348,0.0,0.0,0.0,0.0,0.0,0.0,0.40429794788360596,-0.0001233179064001888,0.06941772252321243
1969-12-31T19:36:15.450000,0,0,0,0,-0.16749759018421173,-0.01196411345154047,9.891928672790527,0.14728963375091553,0.04162466526031494,9.880060195922852,-0.07874999940395355,-0.5074999928474426,-0.4637500047683716,-0.08700881898403168,-0.5564637184143066,-0.5564637184143066,0.0,0.0,0.0,0.0,0.0,0.0,0.3331160545349121,-0.011916117742657661,0.07200803607702255
1969-12-31T19:36:15.461000,0,0,0,0,3.790231227874756,0.06699904054403305,9.884750366210938,0.8066527843475342,0.04621736332774162,9.880908966064453,-0.008750000037252903,-0.6037499904632568,-0.4987499713897705,-0.07956445962190628,-0.5557763576507568,-0.5557763576507568,0.0,0.0,0.0,0.0,0.0,0.0,0.9876101016998291,-0.007303233724087477,0.07276656478643417
1969-12-31T19:36:15.472000,0,0,0,0,6.537191867828369,0.038285162299871445,10.016355514526367,1.8438658714294434,0.044781655073165894,9.905424118041992,-0.2800000011920929,-0.6212499737739563,-0.29750001430511475,-0.0986308678984642,-0.543067216873169,-0.543067216873169,0.0,0.0,0.0,0.0,0.0,0.0,2.015002965927124,-0.008696537464857101,0.09710528701543808
1969-12-31T19:36:15.483000,0,0,0,0,0.3852444589138031,0.05024927482008934,9.698110580444336,1.5798591375350952,0.0457712821662426,9.867900848388672,-0.27125000953674316,-0.7787500023841858,-0.26249998807907104,-0.11505124717950821,-0.5401085615158081,-0.5401085615158081,0.0,0.0,0.0,0.0,0.0,0.0,1.7424317598342896,-0.007656502071768045,0.059436410665512085
1969-12-31T19:36:15.494000,0,0,0,0,-5.201996803283691,0.11724831163883209,9.77228832244873,0.3523603677749634,0.058708444237709045,9.850595474243164,-0.2800000011920929,-0.9362499713897705,-0.29750001430511475,-0.13074198365211487,-0.5502291321754456,-0.5502291321754456,0.0,0.0,0.0,0.0,0.0,0.0,0.5123873353004456,0.005280305165797472,0.042089082300662994
1969-12-31T19:36:15.505000,0,0,0,0,-5.706881999969482,0.014356935396790504,9.987641334533691,-0.744347095489502,0.05068093538284302,9.87540054321289,-0.17499999701976776,-0.7875000238418579,-0.4024999737739563,-0.13495202362537384,-0.5561315417289734,-0.5561315417289734,0.0,0.0,0.0,0.0,0.0,0.0,-0.5814136266708374,-0.0027028133627027273,0.06694072484970093
1969-12-31T19:36:15.516000,0,0,0,0,-0.1866401731967926,0.05982056260108948,9.9350004196167,-0.6434035301208496,0.05233518406748772,9.886187553405762,-0.061250001192092896,-0.6737499833106995,-0.5249999761581421,-0.12794113159179688,-0.5618325471878052,-0.5618325471878052,0.0,0.0,0.0,0.0,0.0,0.0,-0.47808098793029785,-0.0010180860990658402,0.07776857167482376
1969-12-31T19:36:15.527000,0,0,0,0,-0.2560320198535919,0.07178468257188797,9.899106979370117,-0.5732902884483337,0.05585549399256706,9.88852596282959,-0.061250001192092896,-0.73499995470047,-0.5337499976158142,-0.12159714102745056,-0.5713962316513062,-0.5713962316513062,0.0,0.0,0.0,0.0,0.0,0.0,-0.40594252943992615,0.0025099674239754677,0.08014113456010818
1969-12-31T19:36:15.538000,0,0,0,0,-0.2273181676864624,0.05024927482008934,9.899106979370117,-0.5106701850891113,0.054840780794620514,9.890440940856934,-0.1837499886751175,-0.7087500095367432,-0.41999998688697815,-0.12750943005084991,-0.5704705715179443,-0.5704705715179443,0.0,0.0,0.0,0.0,0.0,0.0,-0.34161391854286194,0.0015131649561226368,0.08208531886339188
1969-12-31T19:36:15.549000,0,0,0,0,-0.21296121180057526,0.04785645380616188,9.877572059631348,-0.4567856192588806,0.05357663705945015,9.88811206817627,-0.19249999523162842,-0.6912499666213989,-0.5074999928474426,-0.13369165360927582,-0.5742812156677246,-0.5742812156677246,0.0,0.0,0.0,0.0,0.0,0.0,-0.28629636764526367,0.0002784581738524139,0.07978104054927826
1969-12-31T19:36:15.559000,0,0,0,0,-6.874579429626465,0.09810572862625122,10.006784439086914,-1.6183900833129883,0.061636291444301605,9.909591674804688,-0.03500000014901161,-0.4462500214576721,-0.5074999928474426,-0.12430362403392792,-0.5614396333694458,-0.5614396333694458,0.0,0.0,0.0,0.0,0.0,0.0,-1.440802812576294,0.008321117609739304,0.10138668864965439
1969-12-31T19:36:15.570000,0,0,0,0,-3.8835511207580566,0.035892341285943985,9.76989459991455,-2.028378486633301,0.05697670206427574,9.884306907653809,0.07874999940395355,-0.2537499964237213,-0.73499995470047,-0.10498817265033722,-0.5525981187820435,-0.5525981187820435,0.0,0.0,0.0,0.0,0.0,0.0,-1.8417474031448364,0.0036507886834442616,0.07627031952142715
1969-12-31T19:36:15.581000,0,0,0,0,1.9884356260299683,0.009571290574967861,9.78664493560791,-1.3013453483581543,0.04839644208550453,9.866630554199219,0.061250001192092896,-0.35875001549720764,-0.6299999952316284,-0.089174784719944,-0.5449222326278687,-0.5449222326278687,0.0,0.0,0.0,0.0,0.0,0.0,-1.1091561317443848,-0.004912094678729773,0.05870082601904869
1969-12-31T19:36:15.592000,0,0,0,0,4.027120590209961,0.05742774158716202,9.908679008483887,-0.3369065523147583,0.050031084567308426,9.87424087524414,0.05249999836087227,-0.6387500166893005,-0.6650000214576721,-0.07569798827171326,-0.5590224266052246,-0.5590224266052246,0.0,0.0,0.0,0.0,0.0,0.0,-0.14394482970237732,-0.0032794522121548653,0.06632688641548157
1969-12-31T19:36:15.603000,0,0,0,0,3.7878384590148926,0.04785645380616188,10.00439167022705,0.40966182947158813,0.049637481570243835,9.897797584533691,-0.13124999403953552,-0.6912499666213989,-0.5600000023841858,-0.08098236471414566,-0.5678030252456665,-0.5678030252456665,0.0,0.0,0.0,0.0,0.0,0.0,0.5996811389923096,-0.0036682740319520235,0.0898260548710823
1969-12-31T19:36:15.622000,0,0,0,0,-0.1698903888463974,0.07896315306425095,9.870393753051758,0.3047643303871155,0.05494535341858864,9.892837524414062,-0.04374999925494194,-0.5687500238418579,-0.4637500047683716,-0.07744064182043076,-0.561006486415863,-0.561006486415863,0.0,0.0,0.0,0.0,0.0,0.0,0.4923754930496216,0.0016146734124049544,0.08481825143098831
1969-12-31T19:36:15.633000,0,0,0,0,-0.12203396111726761,0.0,9.903892517089844,0.22751492261886597,0.045000381767749786,9.894838333129883,-0.11374999582767487,-0.5600000023841858,-0.5600000023841858,-0.08089456707239151,-0.560873806476593,-0.560873806476593,0.0,0.0,0.0,0.0,0.0,0.0,0.4131093919277191,-0.00830281525850296,0.08678161352872849
1969-12-31T19:36:15.644000,0,0,0,0,3.5748772621154785,0.09571290761232376,9.877572059631348,0.8333789706230164,0.054179221391677856,9.89171314239502,-0.07874999940395355,-0.6475000381469727,-0.5337499976158142,-0.08069056272506714,-0.5647960901260376,-0.5647960901260376,0.0,0.0,0.0,0.0,0.0,0.0,1.0139697790145874,0.0008571854559704661,0.08356349915266037
1969-12-31T19:36:15.655000,0,0,0,0,6.585048198699951,0.05982056260108948,10.009178161621094,1.8744165897369385,0.05520028993487358,9.91297435760498,-0.2887499928474426,-0.6737499833106995,-0.3149999976158142,-0.10048219561576843,-0.5555120706558228,-0.5555120706558228,0.0,0.0,0.0,0.0,0.0,0.0,2.0450403690338135,0.0018710170406848192,0.10464591532945633
1969-12-31T19:36:15.666000,0,0,0,0,0.5503491759300232,0.0526420958340168,9.69332504272461,1.6347637176513672,0.054737262427806854,9.873218536376953,-0.3149999976158142,-0.8312499523162842,-0.3149999976158142,-0.12088818103075027,-0.5578340888023376,-0.5578340888023376,0.0,0.0,0.0,0.0,0.0,0.0,1.7965511083602905,0.0014190326910465956,0.06474030017852783
1969-12-31T19:36:15.677000,0,0,0,0,-6.065804958343506,0.11246266961097717,9.882357597351074,0.2409803867340088,0.06518541276454926,9.874872207641602,-0.2800000011920929,-0.9275000095367432,-0.35875001549720764,-0.13602367043495178,-0.5690784454345703,-0.5690784454345703,0.0,0.0,0.0,0.0,0.0,0.0,0.40076521039009094,0.011839611455798149,0.06636141985654831
1969-12-31T19:36:15.688000,0,0,0,0,-4.063013076782227,0.031106693670153618,10.02114200592041,-0.5380314588546753,0.059017252177000046,9.901346206665039,-0.12250000238418579,-0.7262499332427979,-0.48125001788139343,-0.13473723828792572,-0.5736494064331055,-0.5736494064331055,0.0,0.0,0.0,0.0,0.0,0.0,-0.37638258934020996,0.005674729123711586,0.09286593645811081
1969-12-31T19:36:15.699000,0,0,0,0,-0.15314064919948578,0.07417750358581543,9.951749801635742,-0.46836721897125244,0.061761219054460526,9.910469055175781,-0.08749999850988388,-0.699999988079071,-0.5512499809265137,-0.13024380803108215,-0.5805016160011292,-0.5805016160011292,0.0,0.0,0.0,0.0,0.0,0.0,-0.30521324276924133,0.00840491522103548,0.10201377421617508
1969-12-31T19:36:15.710000,0,0,0,0,-0.24646073579788208,0.07417750358581543,9.882357597351074,-0.42820271849632263,0.06400853395462036,9.905381202697754,-0.04374999925494194,-0.6475000381469727,-0.49000000953674316,-0.12201609462499619,-0.5789523124694824,-0.5789523124694824,0.0,0.0,0.0,0.0,0.0,0.0,-0.2637450695037842,0.010620159097015858,0.09694669395685196
1969-12-31T19:36:15.721000,0,0,0,0,-0.2392822504043579,0.07178468257188797,9.879964828491211,-0.3940085768699646,0.06541599333286285,9.90078067779541,-0.13124999403953552,-0.6912499666213989,-0.5337499976158142,-0.12289446592330933,-0.583375096321106,-0.583375096321106,0.0,0.0,0.0,0.0,0.0,0.0,-0.22842392325401306,0.011989377439022064,0.0923662781715393
1969-12-31T19:36:15.732000,0,0,0,0,-0.1986043006181717,0.0406779870390892,9.958928108215332,-0.3586409091949463,0.060938477516174316,9.91130542755127,-0.14875000715255737,-0.6387500166893005,-0.4987499713897705,-0.12535397708415985,-0.5814470052719116,-0.5814470052719116,0.0,0.0,0.0,0.0,0.0,0.0,-0.19210858643054962,0.00749836303293705,0.10290691256523132
1969-12-31T19:36:15.743000,0,0,0,0,-6.841080188751221,0.08614161610603333,9.81535816192627,-1.5319459438323975,0.0655001848936081,9.893939018249512,0.03500000014901161,-0.27125000953674316,-0.5600000023841858,-0.11010032147169113,-0.5595857501029968,-0.5595857501029968,0.0,0.0,0.0,0.0,0.0,0.0,-1.3587031364440918,0.01201146561652422,0.0856575146317482
1969-12-31T19:36:15.754000,0,0,0,0,-0.7417750358581543,0.06699904054403305,9.820144653320312,-1.3889269828796387,0.06577147543430328,9.880582809448242,0.05249999836087227,-0.2537499964237213,-0.7087500095367432,-0.09463298320770264,-0.549258291721344,-0.549258291721344,0.0,0.0,0.0,0.0,0.0,0.0,-1.2096682786941528,0.012219361029565334,0.072409987449646
1969-12-31T19:36:15.765000,0,0,0,0,1.8759729862213135,0.02392822690308094,9.805787086486816,-0.7979883551597595,0.058197952806949615,9.867045402526855,0.07874999940395355,-0.49000000953674316,-0.6912499666213989,-0.07813994586467743,-0.5547118782997131,-0.5547118782997131,0.0,0.0,0.0,0.0,0.0,0.0,-0.6156222224235535,0.004605371505022049,0.05892898142337799
1969-12-31T19:36:15.776000,0,0,0,0,4.000799655914307,0.06699904054403305,9.93260669708252,0.0705801248550415,0.05979092791676521,9.878911972045898,0.061250001192092896,-0.6562499403953552,-0.6650000214576721,-0.06488049030303955,-0.5686749815940857,-0.5686749815940857,0.0,0.0,0.0,0.0,0.0,0.0,0.2517186403274536,0.006138918921351433,0.070774145424366
1969-12-31T19:36:15.787000,0,0,0,0,4.0247273445129395,0.04307080805301666,9.946964263916016,0.7862707376480103,0.0567646287381649,9.891229629516602,-0.20999999344348907,-0.73499995470047,-0.5774999856948853,-0.0786849707365036,-0.5802204608917236,-0.5802204608917236,0.0,0.0,0.0,0.0,0.0,0.0,0.9626386165618896,0.0030803324189037085,0.08300477266311646
1969-12-31T19:36:15.798000,0,0,0,0,-0.12203396111726761,0.02871387079358101,9.870393753051758,0.6218699216842651,0.051687512546777725,9.887458801269531,-0.10499999672174454,-0.5774999856948853,-0.5249999761581421,-0.08118818700313568,-0.5764011144638062,-0.5764011144638062,0.0,0.0,0.0,0.0,0.0,0.0,0.7942946553230286,-0.0020019689109176397,0.0791633352637291
1969-12-31T19:36:15.809000,0,0,0,0,-0.1818545162677765,0.02392822690308094,9.827322959899902,0.476397842168808,0.046663153916597366,9.876574516296387,-0.09624999761581421,-0.5337499976158142,-0.49000000953674316,-0.08262094110250473,-0.5678942799568176,-0.5678942799568176,0.0,0.0,0.0,0.0,0.0,0.0,0.6456162929534912,-0.007005811668932438,0.06822379678487778
1969-12-31T19:36:15.820000,0,0,0,0,-0.062213387340307236,0.05024927482008934,9.9350004196167,0.3789105713367462,0.047312233597040176,9.887149810791016,-0.03500000014901161,-0.5512499809265137,-0.4987499713897705,-0.07809100300073624,-0.5622392892837524,-0.5622392892837524,0.0,0.0,0.0,0.0,0.0,0.0,0.5454237461090088,-0.006343321409076452,0.07875139266252518
1969-12-31T19:36:15.831000,0,0,0,0,6.898507595062256,0.04785645380616188,10.02592658996582,1.5589410066604614,0.047410737723112106,9.912267684936523,-0.12250000238418579,-0.6650000214576721,-0.5162500143051147,-0.08231540769338608,-0.5659815669059753,-0.5659815669059753,0.0,0.0,0.0,0.0,0.0,0.0,1.7170156240463257,-0.006228861398994923,0.10373099148273468
1969-12-31T19:36:15.842000,0,0,0,0,4.211367607116699,0.033499520272016525,9.839286804199219,2.0390233993530273,0.044892843812704086,9.89905834197998,-0.2800000011920929,-0.7175000309944153,-0.2537499964237213,-0.10112012922763824,-0.5553877353668213,-0.5553877353668213,0.0,0.0,0.0,0.0,0.0,0.0,2.1864261627197266,-0.008703956380486488,0.09035498648881912
1969-12-31T19:36:15.853000,0,0,0,0,-2.737389087677002,0.08853443711996078,9.762717247009277,1.1745048761367798,0.052791863679885864,9.874381065368652,-0.2537499964237213,-0.8575000166893005,-0.3062500059604645,-0.11563903093338013,-0.5588796734809875,-0.5588796734809875,0.0,0.0,0.0,0.0,0.0,0.0,1.3153661489486694,-0.0007888871477916837,0.06558116525411606
1969-12-31T19:36:15.864000,0,0,0,0,-5.747560024261475,0.07417750358581543,9.951749801635742,-0.07837128639221191,0.05666261166334152,9.888384819030762,-0.2800000011920929,-0.8137500286102295,-0.4024999737739563,-0.13127385079860687,-0.5653719305992126,-0.5653719305992126,0.0,0.0,0.0,0.0,0.0,0.0,0.062150612473487854,0.0030927881598472595,0.07958047091960907
1969-12-31T19:36:15.875000,0,0,0,0,-0.25363919138908386,-0.02153540402650833,9.824929237365723,-0.1100943312048912,0.042508967220783234,9.876899719238281,-0.12250000238418579,-0.612500011920929,-0.4987499713897705,-0.13043923676013947,-0.5640869140625,-0.5640869140625,0.0,0.0,0.0,0.0,0.0,0.0,0.030248722061514854,-0.010980676859617233,0.06809236109256744
1969-12-31T19:36:15.886000,0,0,0,0,-0.29431718587875366,0.038285162299871445,9.846465110778809,-0.1434381902217865,0.04174447059631348,9.871391296386719,-0.05249999836087227,-0.6387500166893005,-0.5600000023841858,-0.12302527576684952,-0.568739116191864,-0.568739116191864,0.0,0.0,0.0,0.0,0.0,0.0,-0.0031110995914787054,-0.011667918413877487,0.06258311122655869
1969-12-31T19:36:15.903000,0,0,0,0,-0.21774686872959137,0.0406779870390892,9.872786521911621,-0.15688787400722504,0.041551440954208374,9.871644020080566,-0.1574999988079071,-0.7175000309944153,-0.48125001788139343,-0.12630468606948853,-0.5727779865264893,-0.5727779865264893,0.0,0.0,0.0,0.0,0.0,0.0,-0.01651320978999138,-0.011780161410570145,0.06283610314130783
1969-12-31T19:36:15.914000,0,0,0,0,-1.9405791759490967,0.019142581149935722,9.944571495056152,-0.4797314405441284,0.03749549388885498,9.884843826293945,-0.061250001192092896,-0.6562499403953552,-0.48125001788139343,-0.12011636793613434,-0.5722469687461853,-0.5722469687461853,0.0,0.0,0.0,0.0,0.0,0.0,-0.33770784735679626,-0.015740420669317245,0.07605884224176407
1969-12-31T19:36:15.925000,0,0,0,0,-7.042076587677002,0.10049854964017868,9.839286804199219,-1.6674991846084595,0.048898886889219284,9.876598358154297,0.07000000029802322,-0.24500000476837158,-0.6650000214576721,-0.10203156620264053,-0.5567896366119385,-0.5567896366119385,0.0,0.0,0.0,0.0,0.0,0.0,-1.5180150270462036,-0.004313728306442499,0.0679246261715889
1969-12-31T19:36:15.936000,0,0,0,0,-0.8733802437782288,0.07657032459974289,9.812965393066406,-1.5237656831741333,0.05390734598040581,9.865080833435059,0.0,-0.24500000476837158,-0.6650000214576721,-0.09232582151889801,-0.5433701276779175,-0.5433701276779175,0.0,0.0,0.0,0.0,0.0,0.0,-1.367516040802002,0.0006849855417385697,0.056512996554374695
1969-12-31T19:36:15.947000,0,0,0,0,1.8616160154342651,0.035892341285943985,9.836893081665039,-0.9110202193260193,0.05064667761325836,9.859978675842285,0.09624999761581421,-0.45499998331069946,-0.7087500095367432,-0.0743875652551651,-0.5484464168548584,-0.5484464168548584,0.0,0.0,0.0,0.0,0.0,0.0,-0.7510169744491577,-0.0025845877826213837,0.051469769328832626
1969-12-31T19:36:15.958000,0,0,0,0,3.9218363761901855,0.08614161610603333,9.920642852783203,-0.036285459995269775,0.05707117170095444,9.87095832824707,-0.008750000037252903,-0.6387500166893005,-0.6650000214576721,-0.0681437999010086,-0.5620819926261902,-0.5620819926261902,0.0,0.0,0.0,0.0,0.0,0.0,0.12310552597045898,0.0037940030451864004,0.06244088336825371
1969-12-31T19:36:15.969000,0,0,0,0,4.2592244148254395,0.05024927482008934,9.997213363647461,0.7411909103393555,0.055836424231529236,9.893810272216797,-0.20124998688697815,-0.73499995470047,-0.48125001788139343,-0.08080551028251648,-0.5681520700454712,-0.5681520700454712,0.0,0.0,0.0,0.0,0.0,0.0,0.8961196541786194,0.0025307985488325357,0.08522126823663712
1969-12-31T19:36:15.980000,0,0,0,0,-0.11246266961097717,0.05503492057323456,9.81775188446045,0.5866817831993103,0.05569135397672653,9.880043983459473,-0.07000000029802322,-0.6299999952316284,-0.5337499976158142,-0.07977763563394547,-0.5699612498283386,-0.5699612498283386,0.0,0.0,0.0,0.0,0.0,0.0,0.7379191517829895,0.0023567115422338247,0.07139798253774643
1969-12-31T19:36:15.991000,0,0,0,0,-0.1866401731967926,0.016749760136008263,9.839286804199219,0.446712464094162,0.048643022775650024,9.87266731262207,-0.12250000238418579,-0.5687500238418579,-0.45499998331069946,-0.08384159952402115,-0.5623034238815308,-0.5623034238815308,0.0,0.0,0.0,0.0,0.0,0.0,0.5949685573577881,-0.004682463128119707,0.0639742836356163
1969-12-31T19:36:16,0,0,0,0,-0.08853443711996078,0.01196411345154047,9.913464546203613,0.349834144115448,0.042004235088825226,9.880051612854004,-0.03500000014901161,-0.5687500238418579,-0.4724999964237213,-0.0791955441236496,-0.5568087100982666,-0.5568087100982666,0.0,0.0,0.0,0.0,0.0,0.0,0.4956057369709015,-0.011283081956207752,0.07132222503423691
1969-12-31T19:36:16.011000,0,0,0,0,6.831508636474609,0.04546362906694412,10.009178161621094,1.523000717163086,0.042630378156900406,9.903423309326172,-0.14000000059604645,-0.6299999952316284,-0.4987499713897705,-0.08497956395149231,-0.5578061938285828,-0.5578061938285828,0.0,0.0,0.0,0.0,0.0,0.0,1.6605767011642456,-0.01061788946390152,0.09457551687955856
1969-12-31T19:36:16.022000,0,0,0,0,4.376472473144531,0.035892341285943985,9.820144653320312,2.0394718647003174,0.04141081124544144,9.888350486755371,-0.2800000011920929,-0.6650000214576721,-0.24500000476837158,-0.10353086143732071,-0.5442526936531067,-0.5442526936531067,0.0,0.0,0.0,0.0,0.0,0.0,2.166442394256592,-0.011778371408581734,0.07935936748981476
1969-12-31T19:36:16.033000,0,0,0,0,-4.917250633239746,0.10289137810468674,9.748359680175781,0.780322790145874,0.052538637071847916,9.863012313842773,-0.26249998807907104,-0.918749988079071,-0.2887499928474426,-0.11865278333425522,-0.5520965456962585,-0.5520965456962585,0.0,0.0,0.0,0.0,0.0,0.0,0.902753472328186,-0.0006333116325549781,0.05396304279565811
1969-12-31T19:36:16.049000,0,0,0,0,-5.793023586273193,0.0813559740781784,9.973284721374512,-0.4094362258911133,0.057754501700401306,9.88297176361084,-0.23624999821186066,-0.8575000166893005,-0.42875000834465027,-0.1298392117023468,-0.5640973448753357,-0.5640973448753357,0.0,0.0,0.0,0.0,0.0,0.0,-0.2856346666812897,0.0045843604020774364,0.07393964380025864
1969-12-31T19:36:16.058000,0,0,0,0,-0.1986043006181717,0.038285162299871445,9.992427825927734,-0.3712761700153351,0.05423060059547424,9.902783393859863,-0.1574999988079071,-0.6475000381469727,-0.5425000190734863,-0.13247044384479523,-0.5681714415550232,-0.5681714415550232,0.0,0.0,0.0,0.0,0.0,0.0,-0.24630489945411682,0.0010826244251802564,0.09376617521047592
1969-12-31T19:36:16.069000,0,0,0,0,-0.2153540551662445,0.0813559740781784,9.844072341918945,-0.3430546522140503,0.059140224009752274,9.892156600952148,-0.10499999672174454,-0.699999988079071,-0.5162500143051147,-0.12985731661319733,-0.5734387636184692,-0.5734387636184692,0.0,0.0,0.0,0.0,0.0,0.0,-0.2170601189136505,0.005987520329654217,0.08315220475196838
1969-12-31T19:36:16.080000,0,0,0,0,-0.23688945174217224,0.07178468257188797,9.89671516418457,-0.323839008808136,0.06142883747816086,9.89298152923584,-0.16625000536441803,-0.7087500095367432,-0.48125001788139343,-0.1333191692829132,-0.5762813091278076,-0.5762813091278076,0.0,0.0,0.0,0.0,0.0,0.0,-0.19692258536815643,0.00826310459524393,0.0839896947145462
1969-12-31T19:36:16.091000,0,0,0,0,-0.1986043006181717,0.02392822690308094,9.865608215332031,-0.30117183923721313,0.054641321301460266,9.88802719116211,-0.16625000536441803,-0.6475000381469727,-0.49000000953674316,-0.13645170629024506,-0.5752884149551392,-0.5752884149551392,0.0,0.0,0.0,0.0,0.0,0.0,-0.17344747483730316,0.0014988234033808112,0.0790456011891365
1969-12-31T19:36:16.102000,0,0,0,0,-6.5419769287109375,0.08614161610603333,10.045069694519043,-1.430741786956787,0.06034279614686966,9.916451454162598,-0.04374999925494194,-0.45499998331069946,-0.4724999964237213,-0.1276334673166275,-0.5605837106704712,-0.5605837106704712,0.0,0.0,0.0,0.0,0.0,0.0,-1.2966753244400024,0.007189183030277491,0.10755462199449539
1969-12-31T19:36:16.113000,0,0,0,0,-4.304687976837158,0.08614161610603333,9.762717247009277,-1.9509186744689941,0.06501232087612152,9.888626098632812,0.10499999672174454,-0.22749999165534973,-0.6825000047683716,-0.10550422966480255,-0.5466639995574951,-0.5466639995574951,0.0,0.0,0.0,0.0,0.0,0.0,-1.8080216646194458,0.011805849149823189,0.07985419780015945
1969-12-31T19:36:16.124000,0,0,0,0,1.794616937637329,0.038285162299871445,9.848858833312988,-1.2729861736297607,0.06017477437853813,9.881428718566895,0.07000000029802322,-0.5249999761581421,-0.6912499666213989,-0.08880940824747086,-0.5547667145729065,-0.5547667145729065,0.0,0.0,0.0,0.0,0.0,0.0,-1.1245343685150146,0.006924641318619251,0.07273922860622406
1969-12-31T19:36:16.135000,0,0,0,0,3.8739800453186035,0.08853443711996078,9.906286239624023,-0.3413984179496765,0.06530780345201492,9.8859281539917,0.026249999180436134,-0.6825000047683716,-0.6912499666213989,-0.0778643935918808,-0.5721832513809204,-0.5721832513809204,0.0,0.0,0.0,0.0,0.0,0.0,-0.1920115053653717,0.011979264207184315,0.077253557741642
1969-12-31T19:36:16.146000,0,0,0,0,4.517648696899414,0.06699904054403305,9.973284721374512,0.5380767583847046,0.06561391055583954,9.901739120483398,-0.21875,-0.73499995470047,-0.5162500143051147,-0.09126612544059753,-0.5792287588119507,-0.5792287588119507,0.0,0.0,0.0,0.0,0.0,0.0,0.6840304732322693,0.012217442505061626,0.09301285445690155
1969-12-31T19:36:16.157000,0,0,0,0,-0.22971096634864807,-0.007178467698395252,9.755537986755371,0.3991091251373291,0.05243867635726929,9.875277519226074,-0.11374999582767487,-0.5774999856948853,-0.5074999928474426,-0.09340490400791168,-0.5743865966796875,-0.5743865966796875,0.0,0.0,0.0,0.0,0.0,0.0,0.5423268675804138,-0.0009592478745616972,0.06651093065738678
1969-12-31T19:36:16.168000,0,0,0,0,-0.12442677468061447,0.08853443711996078,9.879964828491211,0.30435046553611755,0.05897191911935806,9.876126289367676,-0.14000000059604645,-0.612500011920929,-0.45499998331069946,-0.09783725440502167,-0.5690292716026306,-0.5690292716026306,0.0,0.0,0.0,0.0,0.0,0.0,0.44531670212745667,0.0055437167175114155,0.06732743978500366
1969-12-31T19:36:16.185000,0,0,0,0,2.837887763977051,0.06460621953010559,9.89671516418457,0.7629142999649048,0.05999171361327171,9.879853248596191,-0.04374999925494194,-0.6299999952316284,-0.4637500047683716,-0.09269221127033234,-0.5661085247993469,-0.5661085247993469,0.0,0.0,0.0,0.0,0.0,0.0,0.8993728160858154,0.006523648276925087,0.07099052518606186
1969-12-31T19:36:16.196000,0,0,0,0,6.766902446746826,0.04546362906694412,10.05703353881836,1.8496209383010864,0.05736216902732849,9.911922454833984,-0.3499999940395355,-0.6737499833106995,-0.3499999940395355,-0.11716858297586441,-0.5589585900306702,-0.5589585900306702,0.0,0.0,0.0,0.0,0.0,0.0,1.9763751029968262,0.0038886647671461105,0.1029299795627594
1969-12-31T19:36:16.207000,0,0,0,0,1.081555962562561,0.05024927482008934,9.726823806762695,1.71060311794281,0.056074753403663635,9.878419876098633,-0.33250001072883606,-0.7087500095367432,-0.27125000953674316,-0.1376519650220871,-0.5498673915863037,-0.5498673915863037,0.0,0.0,0.0,0.0,0.0,0.0,1.8283215761184692,0.002618110505864024,0.06931441277265549
1969-12-31T19:36:16.218000,0,0,0,0,-4.835894584655762,0.12681959569454193,9.738787651062012,0.5257036685943604,0.0688793882727623,9.85314655303955,-0.20999999344348907,-0.918749988079071,-0.27125000953674316,-0.14453406631946564,-0.5558174848556519,-0.5558174848556519,0.0,0.0,0.0,0.0,0.0,0.0,0.6401679515838623,0.015380902215838432,0.044002704322338104
1969-12-31T19:36:16.229000,0,0,0,0,-5.8097734451293945,0.07657032459974289,9.973284721374512,-0.6210016012191772,0.07027142494916916,9.87489128112793,-0.2537499964237213,-0.7875000238418579,-0.45499998331069946,-0.154923215508461,-0.564443826675415,-0.564443826675415,0.0,0.0,0.0,0.0,0.0,0.0,-0.5040877461433411,0.016734398901462555,0.06577640771865845
1969-12-31T19:36:16.240000,0,0,0,0,-0.20578275620937347,0.07178468257188797,9.973284721374512,-0.5458480715751648,0.07054532319307327,9.8927001953125,-0.1574999988079071,-0.7087500095367432,-0.5249999761581421,-0.1551683247089386,-0.5713561177253723,-0.5713561177253723,0.0,0.0,0.0,0.0,0.0,0.0,-0.4268759787082672,0.016969451680779457,0.08361030369997025
1969-12-31T19:36:16.251000,0,0,0,0,-0.2560320198535919,0.08374879509210587,9.903892517089844,-0.49339210987091064,0.07293511927127838,9.894725799560547,-0.16625000536441803,-0.7612499594688416,-0.5162500143051147,-0.15622246265411377,-0.5802410244941711,-0.5802410244941711,0.0,0.0,0.0,0.0,0.0,0.0,-0.3726365268230438,0.019309772178530693,0.08565826714038849
1969-12-31T19:36:16.262000,0,0,0,0,-0.20338992774486542,0.10767702758312225,9.899106979370117,-0.440902441740036,0.07922331988811493,9.895519256591797,-0.2800000011920929,-0.699999988079071,-0.5074999928474426,-0.16799679398536682,-0.5833403468132019,-0.5833403468132019,0.0,0.0,0.0,0.0,0.0,0.0,-0.3186321258544922,0.02552761882543564,0.08647088706493378
1969-12-31T19:36:16.273000,0,0,0,0,-0.17946171760559082,0.035892341285943985,9.851250648498535,-0.3935823440551758,0.07138052582740784,9.887506484985352,-0.21875,-0.7262499332427979,-0.49000000953674316,-0.1728246808052063,-0.586607813835144,-0.586607813835144,0.0,0.0,0.0,0.0,0.0,0.0,-0.27003806829452515,0.017657462507486343,0.07847431302070618
1969-12-31T19:36:16.284000,0,0,0,0,-6.345765590667725,0.02871387079358101,10.035497665405273,-1.4709124565124512,0.0636579692363739,9.914292335510254,-0.13124999403953552,-0.4987499713897705,-0.5512499809265137,-0.16886989772319794,-0.5784857273101807,-0.5784857273101807,0.0,0.0,0.0,0.0,0.0,0.0,-1.3408312797546387,0.009944355115294456,0.10534482449293137
1969-12-31T19:36:16.295000,0,0,0,0,-4.500899314880371,0.004785645287483931,9.791430473327637,-2.0193324089050293,0.05300222709774971,9.892054557800293,0.10499999672174454,-0.19249999523162842,-0.6387500166893005,-0.14281804859638214,-0.5570148825645447,-0.5570148825645447,0.0,0.0,0.0,0.0,0.0,0.0,-1.8800969123840332,-0.0006723261321894825,0.08323220163583755
1969-12-31T19:36:16.306000,0,0,0,0,1.7515461444854736,0.014356935396790504,9.81057357788086,-1.336812973022461,0.04600752890110016,9.877306938171387,0.16625000536441803,-0.41999998688697815,-0.699999988079071,-0.11341798305511475,-0.5574084520339966,-0.5574084520339966,0.0,0.0,0.0,0.0,0.0,0.0,-1.1916987895965576,-0.0076189409010112286,0.06856974214315414
1969-12-31T19:36:16.317000,0,0,0,0,3.8333017826080322,0.07417750358581543,9.906286239624023,-0.4010353684425354,0.05110622197389603,9.882552146911621,0.061250001192092896,-0.5774999856948853,-0.6650000214576721,-0.0968027114868164,-0.5658250451087952,-0.5658250451087952,0.0,0.0,0.0,0.0,0.0,0.0,-0.25467145442962646,-0.0025114843156188726,0.07383350282907486
1969-12-31T19:36:16.328000,0,0,0,0,4.783252239227295,0.05742774158716202,9.944571495056152,0.5373075008392334,0.05225040018558502,9.893777847290039,-0.11374999582767487,-0.7175000309944153,-0.5337499976158142,-0.0984148234128952,-0.5737088322639465,-0.5737088322639465,0.0,0.0,0.0,0.0,0.0,0.0,0.6802560687065125,-0.0013629263266921043,0.08500766009092331
1969-12-31T19:36:16.339000,0,0,0,0,-0.22492533922195435,0.009571290574967861,9.743573188781738,0.3993452787399292,0.04452558979392052,9.866591453552246,-0.04374999925494194,-0.5337499976158142,-0.4724999964237213,-0.09321483969688416,-0.5644033551216125,-0.5644033551216125,0.0,0.0,0.0,0.0,0.0,0.0,0.5395749807357788,-0.00905032828450203,0.057782892137765884
1969-12-31T19:36:16.350000,0,0,0,0,-0.14356936514377594,0.062213387340307236,9.903892517089844,0.3010790944099426,0.047727037221193314,9.873342514038086,-0.09624999761581421,-0.5687500238418579,-0.4724999964237213,-0.09350355714559555,-0.5586318373680115,-0.5586318373680115,0.0,0.0,0.0,0.0,0.0,0.0,0.43909332156181335,-0.005827275570482016,0.06450238078832626
1969-12-31T19:36:16.361000,0,0,0,0,-0.1052841916680336,0.02153540402650833,9.9350004196167,0.22752836346626282,0.042986419051885605,9.884502410888672,-0.08749999850988388,-0.5950000286102295,-0.48125001788139343,-0.09293247014284134,-0.5559282898902893,-0.5559282898902893,0.0,0.0,0.0,0.0,0.0,0.0,0.3637038469314575,-0.010523142293095589,0.0756363794207573
1969-12-31T19:36:16.372000,0,0,0,0,6.69990348815918,0.019142581149935722,9.982856750488281,1.3990117311477661,0.03867074474692345,9.902304649353027,-0.1574999988079071,-0.612500011920929,-0.4637500047683716,-0.09907445311546326,-0.553581178188324,-0.553581178188324,0.0,0.0,0.0,0.0,0.0,0.0,1.527623176574707,-0.014768603257834911,0.09333644062280655
1969-12-31T19:36:16.383000,0,0,0,0,4.632504940032959,-0.038285162299871445,9.839286804199219,1.9842658042907715,0.024741921573877335,9.890898704528809,-0.26249998807907104,-0.5337499976158142,-0.2537499964237213,-0.11462029069662094,-0.5325097441673279,-0.5325097441673279,0.0,0.0,0.0,0.0,0.0,0.0,2.1025733947753906,-0.028548171743750572,0.08179958909749985
1969-12-31T19:36:16.394000,0,0,0,0,-2.2612175941467285,0.08853443711996078,9.678967475891113,1.2158441543579102,0.03628820553421974,9.852540016174316,-0.10499999672174454,-0.7262499332427979,-0.2800000011920929,-0.11370515823364258,-0.5286357998847961,-0.5286357998847961,0.0,0.0,0.0,0.0,0.0,0.0,1.3275245428085327,-0.016910050064325333,0.043362900614738464
1969-12-31T19:36:16.405000,0,0,0,0,-6.015556335449219,0.13160523772239685,9.944571495056152,-0.09302091598510742,0.05354034900665283,9.869197845458984,-0.13124999403953552,-0.8575000166893005,-0.38499999046325684,-0.1153741106390953,-0.5408456325531006,-0.5408456325531006,0.0,0.0,0.0,0.0,0.0,0.0,0.01851901225745678,0.00035045421100221574,0.06001899018883705
1969-12-31T19:36:16.416000,0,0,0,0,-0.3948157727718353,0.0933200865983963,9.870393753051758,-0.1476450264453888,0.060740381479263306,9.869414329528809,-0.14000000059604645,-0.7524999976158142,-0.4375,-0.11771664768457413,-0.5479850769042969,-0.5479850769042969,0.0,0.0,0.0,0.0,0.0,0.0,-0.03597929701209068,0.007525057997554541,0.060235876590013504
1969-12-31T19:36:16.427000,0,0,0,0,-0.23688945174217224,0.11485548317432404,9.91585636138916,-0.1637980341911316,0.0705350786447525,9.877820014953613,-0.22749999165534973,-0.7962499856948853,-0.4987499713897705,-0.1281597763299942,-0.5611046552658081,-0.5611046552658081,0.0,0.0,0.0,0.0,0.0,0.0,-0.05193840339779854,0.017255054786801338,0.06864528357982635
1969-12-31T19:36:16.438000,0,0,0,0,-0.19381862878799438,0.12921243906021118,9.879964828491211,-0.16923168301582336,0.08115553110837936,9.87820816040039,-0.32375001907348633,-0.8662499785423279,-0.5425000190734863,-0.14676527678966522,-0.5799927711486816,-0.5799927711486816,0.0,0.0,0.0,0.0,0.0,0.0,-0.05716780200600624,0.027774328365921974,0.06903500109910965
1969-12-31T19:36:16.449000,0,0,0,0,-0.19142581522464752,0.0813559740781784,9.8871431350708,-0.1732487678527832,0.08119180798530579,9.879825592041016,-0.3412500023841858,-0.7437500357627869,-0.5074999928474426,-0.16526561975479126,-0.5860087275505066,-0.5860087275505066,0.0,0.0,0.0,0.0,0.0,0.0,-0.06096656620502472,0.027725541964173317,0.07065688818693161
1969-12-31T19:36:16.466000,0,0,0,0,-6.175875186920166,-0.009571290574967861,10.016355514526367,-1.2597088813781738,0.06476391851902008,9.904537200927734,-0.1837499886751175,-0.4987499713897705,-0.4724999964237213,-0.1670239418745041,-0.5727745890617371,-0.5727745890617371,0.0,0.0,0.0,0.0,0.0,0.0,-1.1418577432632446,0.011297576129436493,0.0954332947731018
1969-12-31T19:36:16.477000,0,0,0,0,-1.3016955852508545,0.0,9.736395835876465,-1.2673083543777466,0.053041815757751465,9.874104499816895,0.07874999940395355,-0.21875,-0.6825000047683716,-0.14364472031593323,-0.5566709041595459,-0.5566709041595459,0.0,0.0,0.0,0.0,0.0,0.0,-1.1438379287719727,-0.00038764221244491637,0.06507007777690887
1969-12-31T19:36:16.488000,0,0,0,0,1.758724570274353,-0.031106693670153618,9.77707290649414,-0.7196040749549866,0.037811148911714554,9.856541633605957,0.23624999821186066,-0.41999998688697815,-0.6562499403953552,-0.10750727355480194,-0.5542259216308594,-0.5542259216308594,0.0,0.0,0.0,0.0,0.0,0.0,-0.5932113528251648,-0.015537232160568237,0.04754380136728287
1969-12-31T19:36:16.499000,0,0,0,0,3.7806599140167236,0.05024927482008934,9.860822677612305,0.09493231773376465,0.040062420070171356,9.857316017150879,0.3762499988079071,-0.42875000834465027,-0.7087500095367432,-0.06148991733789444,-0.5561407208442688,-0.5561407208442688,0.0,0.0,0.0,0.0,0.0,0.0,0.22018472850322723,-0.013255772180855274,0.04830228537321091
1969-12-31T19:36:16.510000,0,0,0,0,5.067997932434082,0.06699904054403305,9.997213363647461,0.9950445294380188,0.04493787884712219,9.882637023925781,0.14000000059604645,-0.45499998331069946,-0.5512499809265137,-0.04232320934534073,-0.5491513609886169,-0.5491513609886169,0.0,0.0,0.0,0.0,0.0,0.0,1.114722490310669,-0.00839107483625412,0.07355526089668274
1969-12-31T19:36:16.521000,0,0,0,0,-0.20338992774486542,0.08614161610603333,9.803394317626953,0.7781309485435486,0.05239564925432205,9.868294715881348,0.17499999701976776,-0.3762499988079071,-0.4724999964237213,-0.021650362759828568,-0.5327014327049255,-0.5327014327049255,0.0,0.0,0.0,0.0,0.0,0.0,0.8933262825012207,-0.0009992882842198014,0.05915810167789459
1969-12-31T19:36:16.532000,0,0,0,0,-0.15314064919948578,0.15074782073497772,9.877572059631348,0.6095731258392334,0.07019714266061783,9.869974136352539,-0.017500000074505806,-0.5249999761581421,-0.49000000953674316,-0.021255560219287872,-0.5293790102005005,-0.5293790102005005,0.0,0.0,0.0,0.0,0.0,0.0,0.7211368083953857,0.016647670418024063,0.060797806829214096
1969-12-31T19:36:16.543000,0,0,0,0,-0.12203396111726761,0.05024927482008934,9.985248565673828,0.47715410590171814,0.06658662855625153,9.890838623046875,-0.32375001907348633,-0.7612499594688416,-0.48125001788139343,-0.050030313432216644,-0.5414908528327942,-0.5414908528327942,0.0,0.0,0.0,0.0,0.0,0.0,0.5857491493225098,0.012926456518471241,0.08162917196750641
1969-12-31T19:36:16.554000,0,0,0,0,6.577868938446045,0.06699904054403305,9.985248565673828,1.5813679695129395,0.0666612759232521,9.907926559448242,-0.38499999046325684,-0.8662499785423279,-0.48125001788139343,-0.08189426362514496,-0.5589272975921631,-0.5589272975921631,0.0,0.0,0.0,0.0,0.0,0.0,1.6816215515136719,0.012918570078909397,0.09862862527370453
1969-12-31T19:36:16.565000,0,0,0,0,4.809573650360107,-0.014356935396790504,9.853643417358398,2.1656651496887207,0.05199718475341797,9.898101806640625,-0.5774999856948853,-0.7787500023841858,-0.22749999165534973,-0.1290387064218521,-0.5515705943107605,-0.5515705943107605,0.0,0.0,0.0,0.0,0.0,0.0,2.2548608779907227,-0.0017166893230751157,0.08869742602109909
1969-12-31T19:36:16.576000,0,0,0,0,-2.1128623485565186,-0.014356935396790504,9.667003631591797,1.3912625312805176,0.03998725861310959,9.856273651123047,-0.4112500250339508,-0.8925000429153442,-0.32375001907348633,-0.1558840274810791,-0.5590264797210693,-0.5590264797210693,0.0,0.0,0.0,0.0,0.0,0.0,1.4730584621429443,-0.013616852462291718,0.046804144978523254
1969-12-31T19:36:16.587000,0,0,0,0,-5.958128452301025,0.0263210479170084,9.81057357788086,0.06104147434234619,0.03751371055841446,9.848002433776855,-0.21875,-0.8487499952316284,-0.38499999046325684,-0.16186414659023285,-0.5666529536247253,-0.5666529536247253,0.0,0.0,0.0,0.0,0.0,0.0,0.1420137584209442,-0.0159629974514246,0.038523878902196884
1969-12-31T19:36:16.598000,0,0,0,0,-0.6412764191627502,-0.014356935396790504,9.827322959899902,-0.06607627868652344,0.028125256299972534,9.844259262084961,0.0,-0.6037499904632568,-0.5512499809265137,-0.14646683633327484,-0.5680829882621765,-0.5680829882621765,0.0,0.0,0.0,0.0,0.0,0.0,0.014708289876580238,-0.02519094944000244,0.03477931022644043
1969-12-31T19:36:16.609000,0,0,0,0,-0.2225324958562851,0.0526420958340168,9.889535903930664,-0.09439446032047272,0.0325627401471138,9.85245418548584,0.21875,-0.4375,-0.49000000953674316,-0.11172562092542648,-0.554328203201294,-0.554328203201294,0.0,0.0,0.0,0.0,0.0,0.0,-0.01364417839795351,-0.020645426586270332,0.04297321289777756
1969-12-31T19:36:16.620000,0,0,0,0,-0.1579263061285019,0.13639087975025177,9.951749801635742,-0.1058935672044754,0.05135536938905716,9.870426177978516,0.13124999403953552,-0.5074999928474426,-0.49000000953674316,-0.08861258625984192,-0.5470010042190552,-0.5470010042190552,0.0,0.0,0.0,0.0,0.0,0.0,-0.02511471137404442,-0.0018582041375339031,0.060945477336645126
1969-12-31T19:36:16.631000,0,0,0,0,-0.17228323221206665,0.16510476171970367,9.93978500366211,-0.11790993064641953,0.0719437226653099,9.882980346679688,0.05249999836087227,-0.5512499809265137,-0.5600000023841858,-0.0751892700791359,-0.5481379628181458,-0.5481379628181458,0.0,0.0,0.0,0.0,0.0,0.0,-0.03704438358545303,0.01861131377518177,0.07350103557109833
1969-12-31T19:36:16.642000,0,0,0,0,-1.1940186023712158,0.10767702758312225,9.951749801635742,-0.3126828670501709,0.07841136306524277,9.895427703857422,-0.08749999850988388,-0.5774999856948853,-0.5249999761581421,-0.07636032998561859,-0.5485482215881348,-0.5485482215881348,0.0,0.0,0.0,0.0,0.0,0.0,-0.23076565563678741,0.024930069223046303,0.08595844358205795
1969-12-31T19:36:16.653000,0,0,0,0,-7.28375244140625,0.15314064919948578,9.820144653320312,-1.574428677558899,0.09193717688322067,9.88180160522461,-0.07000000029802322,-0.3149999976158142,-0.5512499809265137,-0.07575530558824539,-0.5333313345909119,-0.5333313345909119,0.0,0.0,0.0,0.0,0.0,0.0,-1.4852685928344727,0.03824198991060257,0.07239673286676407
1969-12-31T19:36:16.664000,0,0,0,0,0.6412764191627502,0.033499520272016525,9.805787086486816,-1.1733916997909546,0.0813601091504097,9.868042945861816,-0.14875000715255737,-0.4637500047683716,-0.6299999952316284,-0.08269891887903214,-0.5351168513298035,-0.5351168513298035,0.0,0.0,0.0,0.0,0.0,0.0,-1.0789462327957153,0.02750866301357746,0.05868811905384064
1969-12-31T19:36:16.675000,0,0,0,0,2.6632113456726074,0.02392822690308094,9.822537422180176,-0.4789762496948242,0.07096508145332336,9.859807014465332,-0.07874999940395355,-0.6825000047683716,-0.6737499833106995,-0.08232327550649643,-0.5539703965187073,-0.5539703965187073,0.0,0.0,0.0,0.0,0.0,0.0,-0.3826986849308014,0.01700841262936592,0.05047069862484932
1969-12-31T19:36:16.686000,0,0,0,0,4.6779680252075195,0.02871387079358101,9.89432144165039,0.4544175863265991,0.06331771612167358,9.866053581237793,-0.14000000059604645,-0.8225000500679016,-0.6475000381469727,-0.08780977129936218,-0.5778365135192871,-0.5778365135192871,0.0,0.0,0.0,0.0,0.0,0.0,0.5478575229644775,0.009299095720052719,0.05668997764587402
1969-12-31T19:36:16.697000,0,0,0,0,-0.02871387079358101,-0.05982056260108948,9.982856750488281,0.36697202920913696,0.041030000895261765,9.887194633483887,-0.10499999672174454,-0.6212499737739563,-0.5512499809265137,-0.08944498747587204,-0.5789456963539124,-0.5789456963539124,0.0,0.0,0.0,0.0,0.0,0.0,0.458021342754364,-0.012937745079398155,0.07780840992927551
1969-12-31T19:36:16.708000,0,0,0,0,-0.09571290761232376,0.04307080805301666,9.832108497619629,0.28322723507881165,0.041399382054805756,9.87722396850586,0.09624999761581421,-0.5512499809265137,-0.5687500238418579,-0.07178077101707458,-0.5764479637145996,-0.5764479637145996,0.0,0.0,0.0,0.0,0.0,0.0,0.3723104000091553,-0.012534920126199722,0.0678195059299469
1969-12-31T19:36:16.719000,0,0,0,0,-0.11964112520217896,0.04785645380616188,9.899106979370117,0.21030908823013306,0.04256809502840042,9.881184577941895,0.08749999850988388,-0.48125001788139343,-0.5337499976158142,-0.056629203259944916,-0.5673581957817078,-0.5673581957817078,0.0,0.0,0.0,0.0,0.0,0.0,0.29780349135398865,-0.011351672001183033,0.07176551222801208
1969-12-31T19:36:16.730000,0,0,0,0,1.9812570810317993,0.12203396111726761,9.89671516418457,0.5308461785316467,0.056951217353343964,9.88399600982666,0.10499999672174454,-0.49000000953674316,-0.48125001788139343,-0.04125424474477768,-0.5565828680992126,-0.5565828680992126,0.0,0.0,0.0,0.0,0.0,0.0,0.6151782274246216,0.0029611499048769474,0.07454963028430939
1969-12-31T19:36:16.747000,0,0,0,0,4.969892501831055,0.05503492057323456,9.908679008483887,1.334302306175232,0.05660437420010567,9.888463973999023,-0.32375001907348633,-0.6475000381469727,-0.2800000011920929,-0.0681266263127327,-0.5443441867828369,-0.5443441867828369,0.0,0.0,0.0,0.0,0.0,0.0,1.4115628004074097,0.0025687129236757755,0.07895918935537338
1969-12-31T19:36:16.758000,0,0,0,0,-1.9214366674423218,0.08614161610603333,9.750751495361328,0.7450218200683594,0.06195054203271866,9.86353874206543,-0.3062500059604645,-0.875,-0.26249998807907104,-0.09077809005975723,-0.547561764717102,-0.547561764717102,0.0,0.0,0.0,0.0,0.0,0.0,0.8180989027023315,0.007861418649554253,0.05400282144546509
1969-12-31T19:36:16.769000,0,0,0,0,-5.998806476593018,0.05024927482008934,9.982856750488281,-0.4755939245223999,0.05983264371752739,9.88513469696045,-0.367499977350235,-1.0325000286102295,-0.3499999940395355,-0.11710122972726822,-0.566504955291748,-0.566504955291748,0.0,0.0,0.0,0.0,0.0,0.0,-0.40064215660095215,0.0057242331095039845,0.0756135955452919
1969-12-31T19:36:16.780000,0,0,0,0,-0.8805587291717529,0.0023928226437419653,9.858429908752441,-0.548891544342041,0.04943618178367615,9.880301475524902,-0.2800000011920929,-0.7262499332427979,-0.5162500143051147,-0.132596954703331,-0.5737223029136658,-0.5737223029136658,0.0,0.0,0.0,0.0,0.0,0.0,-0.47171342372894287,-0.004626547452062368,0.07079599052667618
1969-12-31T19:36:16.791000,0,0,0,0,-0.29431718587875366,0.02153540402650833,9.841679573059082,-0.5028142333030701,0.04438621178269386,9.873311042785645,-0.13124999403953552,-0.6737499833106995,-0.49000000953674316,-0.1324688196182251,-0.5747970938682556,-0.5747970938682556,0.0,0.0,0.0,0.0,0.0,0.0,-0.4236447215080261,-0.009606074541807175,0.06382163614034653
1969-12-31T19:36:16.802000,0,0,0,0,-0.1627119481563568,0.035892341285943985,9.899106979370117,-0.441256582736969,0.042848844081163406,9.87798023223877,-0.13124999403953552,-0.7262499332427979,-0.5687500238418579,-0.13235287368297577,-0.5843819379806519,-0.5843819379806519,0.0,0.0,0.0,0.0,0.0,0.0,-0.360416978597641,-0.011065459810197353,0.06850392371416092
1969-12-31T19:36:16.813000,0,0,0,0,-0.18424734473228455,0.05024927482008934,9.824929237365723,-0.3947385549545288,0.044188302010297775,9.868377685546875,-0.10499999672174454,-0.6650000214576721,-0.48125001788139343,-0.12975093722343445,-0.5828979015350342,-0.5828979015350342,0.0,0.0,0.0,0.0,0.0,0.0,-0.3124621510505676,-0.009657328948378563,0.05891343206167221
1969-12-31T19:36:16.824000,0,0,0,0,-0.9451649785041809,0.031106693670153618,9.863214492797852,-0.49436435103416443,0.04182056337594986,9.867443084716797,0.008750000037252903,-0.5512499809265137,-0.4724999964237213,-0.11657604575157166,-0.5735345482826233,-0.5735345482826233,0.0,0.0,0.0,0.0,0.0,0.0,-0.41015323996543884,-0.011956159956753254,0.05799368768930435
1969-12-31T19:36:16.835000,0,0,0,0,-5.015356540679932,0.09092725813388824,9.76989459991455,-1.3126524686813354,0.050708748400211334,9.849786758422852,0.1574999988079071,-0.21875,-0.6562499403953552,-0.09050459414720535,-0.5556003451347351,-0.5556003451347351,0.0,0.0,0.0,0.0,0.0,0.0,-1.2224642038345337,-0.0030661027412861586,0.04039131477475166
1969-12-31T19:36:16.846000,0,0,0,0,0.6245267391204834,0.05742774158716202,9.846465110778809,-0.962027907371521,0.051924869418144226,9.849185943603516,0.1574999988079071,-0.26249998807907104,-0.6737499833106995,-0.0669131875038147,-0.5440679788589478,-0.5440679788589478,0.0,0.0,0.0,0.0,0.0,0.0,-0.8675885796546936,-0.0018741386011242867,0.03983040153980255
1969-12-31T19:36:16.857000,0,0,0,0,2.54117751121521,0.07178468257188797,9.822537422180176,-0.3279566168785095,0.05551944673061371,9.844362258911133,0.07000000029802322,-0.5337499976158142,-0.6650000214576721,-0.053889334201812744,-0.5513594150543213,-0.5513594150543213,0.0,0.0,0.0,0.0,0.0,0.0,-0.23242859542369843,0.0016673143254593015,0.035017695277929306
