Timestamp (us),Gyroscope X (deg/s),Gyroscope Y (deg/s),Gyroscope Z (deg/s),Accelerometer X (g),Accelerometer Y (g),Accelerometer Z (g)
192256014,-0.243600,0.004900,-0.111000,-0.027800,-1.026400,0.003700
192276004,-0.093300,0.004800,-0.101600,-0.029800,-1.026400,0.002900
192297260,-0.049000,-0.012700,-0.074700,-0.028500,-1.027600,0.003400
192317012,-0.136200,-0.038900,-0.021700,-0.031200,-1.025200,0.005100
192337004,-0.152800,-0.073600,-0.161600,-0.028300,-1.029300,0.002700
192357010,-0.055600,-0.046900,-0.108100,-0.025400,-1.026900,0.002400
192377007,0.163500,-0.046600,0.102600,-0.026800,-1.031300,0.004100
192397182,0.066200,0.058700,-0.038000,-0.028800,-1.029100,0.003400
192417011,-0.117900,-0.011700,0.014700,-0.029500,-1.027100,0.003700
192437008,-0.038400,-0.037900,-0.081600,-0.030200,-1.031300,0.003400
192457009,-0.090700,0.023600,-0.046100,-0.027600,-1.026600,0.001500
192477009,0.058600,0.014700,-0.002100,-0.027600,-1.029600,0.005400
192497179,0.023200,-0.011600,0.059200,-0.027100,-1.025200,0.002000
192517007,-0.178200,-0.011500,-0.019900,-0.030000,-1.029300,0.002400
192537007,-0.054500,-0.081500,-0.107300,-0.030500,-1.028600,0.003700
192557008,0.068300,-0.019700,0.007100,-0.026600,-1.027900,0.002000
192577005,0.155400,0.015400,0.024600,-0.029000,-1.028100,0.005900
192597187,-0.038100,-0.002200,0.041900,-0.027100,-1.031000,0.001200
192617007,0.023400,-0.019700,0.032900,-0.028800,-1.030800,0.004100
192637004,0.032000,0.015500,0.015200,-0.027300,-1.029800,0.004100
192657007,0.110500,0.041600,0.120100,-0.028300,-1.028800,0.003400
192677005,0.109900,-0.011100,-0.029400,-0.026600,-1.027400,0.003700
192697175,0.021700,-0.011100,0.023300,-0.025600,-1.027900,0.006800
192717010,0.030300,-0.002300,-0.029400,-0.027100,-1.030800,0.003700
192737005,0.056300,-0.011000,-0.046700,-0.026800,-1.029600,0.001700
192757009,0.248500,-0.019700,0.128600,-0.027800,-1.027100,0.001200
192777005,0.264400,0.041700,0.215300,-0.028800,-1.031000,0.007800
192798539,-0.236000,-0.002300,-0.013500,-0.025900,-1.027100,0.005100
192817008,-0.225800,-0.011000,-0.022200,-0.027100,-1.028600,0.001700
192837012,0.213200,-0.046000,0.030400,-0.028800,-1.031300,0.002900
192857012,0.316800,0.024300,0.152700,-0.029500,-1.029300,0.005900
192877010,0.139800,0.024200,0.099300,-0.027300,-1.028600,0.005100
192897182,-0.316000,-0.002200,-0.050100,-0.029300,-1.028100,0.006800
192917007,-0.244100,-0.028500,-0.076000,-0.027800,-1.029300,0.002700
192937007,0.177500,-0.002000,0.029400,-0.028500,-1.027900,0.002900
192957010,0.307600,-0.002000,0.020500,-0.029800,-1.026200,0.004600
192977011,0.060700,-0.019500,-0.023400,-0.028800,-1.028400,0.004600
192997179,-0.228500,0.006900,-0.075700,-0.029000,-1.030100,0.003200
193017004,-0.148300,-0.010700,-0.057700,-0.028100,-1.027600,0.003900
193037008,-0.199800,0.041900,-0.127400,-0.026800,-1.027100,0.001000
193057007,-0.093600,-0.063400,-0.205300,-0.027800,-1.028800,0.002400
193077009,0.003300,-0.054200,0.032200,-0.028100,-1.027900,0.002200
193097178,-0.110500,0.007400,-0.020500,-0.025600,-1.028100,0.005400
193117008,-0.057300,-0.001400,-0.002900,-0.025600,-1.028800,0.001500
193137004,0.153000,-0.018900,0.040900,-0.030700,-1.029100,0.003700
193157012,0.152100,0.016200,0.040600,-0.029300,-1.028100,0.001200
193177007,-0.085100,-0.010200,-0.134600,-0.028800,-1.027600,0.004400
193197175,-0.242100,-0.027600,-0.107500,-0.027300,-1.027600,0.004400
193217008,-0.153100,-0.071200,0.059400,-0.026800,-1.028800,0.003200
193237005,0.294100,-0.009500,0.216500,-0.027600,-1.028800,0.003900
193257012,0.266000,-0.061900,0.171400,-0.027800,-1.027400,0.004900
193277008,-0.059400,-0.035300,0.030400,-0.029500,-1.028400,0.002900
193297178,-0.146500,-0.070100,-0.083600,-0.027800,-1.031000,0.003400
193318111,-0.101800,-0.069600,-0.144300,-0.029300,-1.027600,0.004400
193337004,-0.092400,0.027100,-0.012200,-0.028300,-1.027900,0.003400
193357012,-0.118100,-0.016900,0.022900,-0.029500,-1.028100,0.001700
193377012,-0.082400,-0.008000,-0.047200,-0.029000,-1.027600,0.003400
193397176,-0.046900,-0.016700,-0.020700,-0.027300,-1.027600,0.003200
193417008,0.058400,-0.025300,0.023200,-0.027100,-1.028400,0.004400
193437012,0.110600,0.062300,0.075600,-0.026100,-1.026200,0.006100
193457007,0.004900,-0.016800,0.057600,-0.027600,-1.031500,0.005100
193477003,-0.021400,-0.034200,-0.074000,-0.030500,-1.028600,0.004400
193497179,-0.030000,0.027200,-0.038600,-0.028300,-1.029100,0.003400
193517004,-0.003600,0.000800,0.057900,-0.028500,-1.027100,0.001200
193537012,0.057700,-0.016700,-0.021200,-0.030500,-1.026900,0.006100
193557008,-0.126400,-0.034100,-0.003600,-0.028100,-1.027600,0.002400
193577009,-0.186900,0.018600,0.022700,-0.026300,-1.024700,0.002200
193597176,0.033000,-0.007700,0.013800,-0.027800,-1.029600,0.001700
193617012,0.129100,-0.042700,0.048700,-0.030500,-1.027600,0.003700
193637004,-0.003000,0.010100,-0.047800,-0.029500,-1.030300,0.003400
193657012,-0.038000,-0.016200,-0.038800,-0.028300,-1.028600,0.005400
193677012,-0.055200,-0.068600,-0.073500,-0.028800,-1.030100,0.002400
193697176,0.058900,-0.085700,-0.003100,-0.027300,-1.026200,0.003200
193717012,0.041000,-0.330200,0.093200,-0.026600,-1.027400,0.000700
193737004,0.084500,-0.406800,0.048900,-0.028100,-1.029800,0.002700
193757007,0.005200,-0.028000,0.004800,-0.030200,-1.027900,0.003200
193777005,-0.082300,-0.089100,-0.091500,-0.029800,-1.028800,0.002700
193798532,0.067000,-0.088500,-0.012100,-0.025900,-1.027100,0.002200
193817467,-0.012200,-0.044200,-0.055800,-0.018300,-1.028600,0.002000
193837008,-0.099600,-0.105200,-0.073000,-0.027100,-1.027900,0.002200
193857009,-0.221500,-0.113300,-0.002500,-0.028500,-1.029100,0.002700
193877007,0.016100,-0.138800,-0.011200,-0.028800,-1.027400,0.002900
193897183,-0.106500,-0.138000,0.032600,-0.028100,-1.026900,0.004900
193917007,0.051700,-0.224600,-0.090100,-0.027100,-1.029600,0.004100
193937007,0.165100,-0.196900,0.094200,-0.026600,-1.028600,0.002900
193957010,0.129100,-0.256900,0.128600,-0.028800,-1.029300,0.004100
193977012,-0.151700,-0.430300,-0.064700,-0.028300,-1.030300,0.004400
193997177,0.225500,-0.217600,0.110700,-0.028100,-1.027400,0.001700
194017008,0.171600,-0.006300,0.083800,-0.028500,-1.028600,0.004900
194037007,0.214200,0.037500,-0.004300,-0.028100,-1.027600,0.003400
194057009,-0.093400,0.019800,0.135800,-0.028300,-1.028800,0.003700
194077009,-0.014000,-0.015300,-0.031300,-0.027100,-1.031000,0.004100
194097178,0.117300,-0.085200,0.117600,-0.027800,-1.028600,0.002900
194117007,0.475300,-0.172200,0.186900,-0.024100,-1.028600,0.003700
194137012,0.559800,-1.177400,0.098200,-0.026100,-1.030300,0.004400
194157004,0.320100,-0.916200,0.053800,-0.029500,-1.028400,0.006300
194177007,-0.023200,-0.420500,-0.077800,-0.028300,-1.027900,0.006100
194197176,-0.338000,-0.015300,-0.191000,-0.028800,-1.027900,0.006600
194217007,-0.423400,0.107300,-0.049800,-0.027300,-1.027600,0.006100
194237008,-0.158300,0.062900,0.108000,-0.029500,-1.029300,0.003200
194257008,-0.096000,0.097500,0.037300,-0.026800,-1.026900,0.004900
194277012,0.000800,0.044300,0.028300,-0.030200,-1.026200,0.003900
194298259,-0.217900,0.044100,-0.024400,-0.031700,-1.026400,0.004400
194318005,-0.496500,0.026300,-0.164200,-0.029800,-1.024900,0.006800
194338012,-0.362200,-0.000100,-0.215700,-0.028300,-1.029100,0.002900
194358004,0.392600,0.104900,0.135700,-0.024100,-1.027600,0.001700
194378004,0.512600,0.069200,0.161100,-0.028500,-1.029800,0.003400
194398181,0.159400,0.007500,0.221300,-0.027800,-1.027900,0.005900
194418012,-0.384100,0.016200,-0.165100,-0.030000,-1.027400,0.004900
194438012,-0.022900,-0.018900,-0.129000,-0.028100,-1.027400,0.003700
194458008,0.309700,0.068800,0.116800,-0.028100,-1.029100,0.002700
194478004,0.299000,0.050800,0.238500,-0.028800,-1.028600,0.004400
194498177,0.297100,0.059200,0.245800,-0.029300,-1.027400,0.005100
194518007,-0.019700,-0.011100,-0.000800,-0.028100,-1.026200,0.006800
194538008,-0.098400,-0.037300,-0.158200,-0.027600,-1.027900,0.003200
194558007,0.077300,-0.019600,-0.043500,-0.026600,-1.027900,0.002000
194578011,0.006800,0.015600,-0.025700,-0.030200,-1.027100,0.003900
194598182,-0.343300,-0.072000,-0.226800,-0.026600,-1.029800,0.005400
194618008,-0.131100,0.077200,-0.067900,-0.027100,-1.027600,0.003200
194638012,0.001000,0.094200,-0.006200,-0.028100,-1.030100,0.003200
194658006,-0.331500,0.023600,-0.093700,-0.031700,-1.024000,0.004900
194678007,-0.303200,0.005900,-0.180600,-0.026300,-1.027600,0.003700
194698178,0.118700,0.058400,-0.030700,-0.027300,-1.031000,0.002400
194718007,0.363000,0.075500,0.135700,-0.026600,-1.029100,0.005900
194738009,0.185700,0.005100,0.047400,-0.029500,-1.027600,0.004600
194758010,-0.191700,0.040000,-0.075400,-0.029800,-1.028100,0.004400
194778010,-0.103000,0.039800,-0.013700,-0.026800,-1.029600,0.003900
194799544,0.238900,0.039500,0.047600,-0.028500,-1.028100,0.002400
194818009,0.263600,-0.013200,0.091100,-0.030000,-1.029100,0.004600
194838007,0.069500,-0.021900,0.081800,-0.026300,-1.023500,0.005100
194858004,-0.106000,0.013200,-0.050000,-0.028500,-1.030100,0.004900
194878004,-0.262800,0.048200,-0.014700,-0.026100,-1.027900,0.001700
194898176,0.036300,0.039100,0.116700,-0.028500,-1.028400,0.004400
194918012,0.202400,0.030100,0.019700,-0.031700,-1.029800,0.004400
194938012,0.201100,0.038700,0.045800,-0.026800,-1.030300,0.005400
194958005,-0.097700,0.020900,0.001800,-0.028100,-1.029100,0.004900
194978008,-0.000800,0.003300,-0.033200,-0.028300,-1.029600,0.002000
194998182,0.226700,0.064500,0.159500,-0.030500,-1.029100,0.002000
195018014,0.242800,0.020400,0.053500,-0.026600,-1.026400,0.003900
195038004,-0.257500,0.037700,-0.235600,-0.026100,-1.026600,0.004100
195058007,-0.483400,0.081300,-0.207900,-0.028100,-1.029100,0.002900
195078009,-0.042900,-0.006800,0.012200,-0.029000,-1.026600,0.002200
195098182,0.071200,-0.033000,0.073300,-0.028300,-1.028600,0.004600
195118012,-0.008000,0.028500,0.037900,-0.029000,-1.029300,0.004100
195138008,-0.165500,-0.006700,-0.058600,-0.026100,-1.027400,0.005400
195158012,-0.033200,0.010900,0.020500,-0.029500,-1.029300,0.001700
195178007,0.255800,0.080800,0.151600,-0.029000,-1.028100,0.003700
195198179,0.306700,0.045300,0.185700,-0.028800,-1.029300,0.004900
195218012,0.164700,0.036200,0.175800,-0.029500,-1.027100,0.004400
195238004,-0.107600,0.027300,-0.017800,-0.029300,-1.026400,0.005400
195258007,-0.019400,0.009600,-0.026500,-0.029800,-1.029600,0.004600
195278008,0.173200,0.053300,0.052400,-0.029300,-1.030500,0.004100
195298174,0.128400,0.096700,0.104600,-0.027800,-1.027900,0.001700
195318008,-0.056200,0.069800,-0.036000,-0.026600,-1.028100,0.004600
195338012,-0.239500,0.034400,-0.088300,-0.030200,-1.028600,0.004400
195358012,-0.334300,0.077900,-0.105300,-0.029300,-1.028600,0.003700
195378012,-0.104700,0.025000,0.026600,-0.029300,-1.029800,0.002400
195398173,0.324700,0.051000,0.157700,-0.028800,-1.030300,0.002000
195418004,0.112700,0.024500,0.261700,-0.030200,-1.028400,0.004400
195438009,0.094500,0.015600,-0.037400,-0.029000,-1.027600,0.004100
195458011,-0.011100,0.006700,0.015300,-0.027600,-1.028400,0.005900
195478007,-0.116100,-0.010800,-0.107300,-0.031200,-1.030100,0.003900
195498188,-0.176600,0.033000,-0.054100,-0.029300,-1.028600,0.002400
195518004,0.034500,0.006500,-0.062500,-0.029500,-1.029100,0.002400
195538008,0.253100,0.006500,0.121600,-0.026100,-1.028100,0.002900
195558007,0.146500,0.041500,0.199600,-0.030700,-1.028100,0.005900
195578009,-0.090700,0.058700,0.032100,-0.028800,-1.023700,0.005100
195598178,-0.203900,0.023300,-0.011800,-0.028800,-1.025900,0.003900
195618010,-0.193800,-0.038100,-0.108000,-0.028800,-1.029300,0.004600
195638012,0.166100,-0.037800,0.023900,-0.028300,-1.027400,0.003700
195658007,0.235100,-0.002600,0.015000,-0.031200,-1.029300,0.004600
195678008,-0.072600,0.041200,-0.002600,-0.030200,-1.031000,0.008300
195698182,-0.229700,0.084700,-0.002600,-0.029800,-1.027400,0.004900
195718004,-0.167000,0.084100,0.041200,-0.026600,-1.026400,0.003200
195738012,-0.069700,-0.012600,-0.107800,-0.028500,-1.026400,0.004900
195758009,-0.104300,0.013700,-0.080900,-0.027600,-1.029300,0.002900
195778003,-0.033600,0.004900,-0.010400,-0.029500,-1.028100,0.003900
195799538,-0.042100,0.039800,0.051000,-0.028500,-1.029800,0.002700
195818012,0.106900,0.022100,-0.054400,-0.030700,-1.028800,0.003700
195838008,0.228700,0.013200,0.051000,-0.029500,-1.026200,0.003700
195858010,0.122300,0.013100,0.146900,-0.029000,-1.027100,0.005600
195878007,-0.027300,0.021800,-0.107800,-0.029000,-1.028100,0.003700
195898183,-0.140800,0.039100,0.015400,-0.029500,-1.026600,0.002700
195918012,-0.087500,-0.022400,0.076600,-0.027800,-1.028400,0.003400
195938004,-0.016900,-0.048500,0.023600,-0.030700,-1.026900,0.005900
195958008,0.009500,-0.030700,-0.011600,-0.027800,-1.028600,0.002400
195978011,0.061900,0.004500,-0.002700,-0.030500,-1.031000,0.005100
195998178,-0.174700,0.013200,0.014800,-0.031000,-1.028400,0.005600
196018012,-0.418600,0.048200,-0.160300,-0.029000,-1.028400,0.006300
196038004,-0.748500,-0.022100,-0.439300,-0.029500,-1.028800,0.003900
196058007,0.008700,-0.013300,-0.156600,-0.026100,-1.026200,0.001700
196078013,0.542400,0.030600,0.299400,-0.027300,-1.030800,0.003700
196098186,0.539000,0.065400,0.227500,-0.029800,-1.027900,0.004900
196118012,0.054300,0.038700,0.086100,-0.029800,-1.028800,0.005900
196138003,0.010200,0.012200,-0.001900,-0.029300,-1.028400,0.003900
196158004,0.027700,0.029700,-0.028200,-0.027800,-1.029800,0.005600
196178003,-0.068700,0.038200,0.120800,-0.028300,-1.029300,0.002900
196198178,0.001700,0.055500,0.093800,-0.027800,-1.025700,0.003400
196218006,0.132900,0.002600,0.075700,-0.027300,-1.026900,0.005600
196238003,0.062100,0.046400,0.031400,-0.028500,-1.029600,0.004900
196258008,0.131700,0.028600,0.040000,-0.026100,-1.028100,0.005900
196278004,0.078400,0.080900,0.013500,-0.027600,-1.030100,0.005600
196299258,-0.193400,0.010400,-0.047800,-0.029500,-1.026400,0.005400
196319013,-0.270900,0.010300,-0.047500,-0.024600,-1.027100,0.006600
196339009,-0.032900,-0.033500,-0.064700,-0.028800,-1.030300,0.005900
196359012,0.291000,-0.033300,0.101900,-0.028800,-1.029300,0.004400
196379007,0.289200,0.001900,0.022500,-0.030500,-1.029600,0.002900
196399179,-0.018900,0.036900,0.013600,-0.028800,-1.025400,0.002700
196419004,-0.263800,0.027900,-0.065200,-0.029000,-1.027600,0.004400
196439007,-0.165900,-0.016000,-0.143500,-0.027800,-1.031000,0.001200
196459013,-0.121100,-0.007100,-0.046400,-0.028100,-1.026900,0.003900
196479008,-0.050300,0.062900,-0.046100,-0.029800,-1.028400,0.003900
196499177,-0.023700,0.036300,-0.037100,-0.028100,-1.026200,0.007100
196519007,-0.093600,-0.042700,-0.133100,-0.029500,-1.027600,0.005900
196539012,0.152000,-0.025000,0.025300,-0.030200,-1.028400,0.004100
196559010,0.212300,0.019000,0.033800,-0.028500,-1.028400,0.003900
196579006,-0.112800,0.071300,0.033600,-0.027800,-1.027400,0.003400
196599179,-0.287100,0.044600,-0.019100,-0.030200,-1.025400,0.004900
196619009,-0.014000,-0.008100,-0.150200,-0.024100,-1.026900,0.004900
196639007,0.301100,-0.034300,0.165700,-0.027100,-1.028800,0.004400
196659011,0.264200,-0.025400,0.147200,-0.028300,-1.028100,0.006800
196679012,0.087500,0.044800,0.085000,-0.028300,-1.028800,0.004600
196699383,-0.131800,0.062000,0.023200,-0.028100,-1.027900,0.005100
196719004,-0.166000,0.017900,-0.020700,-0.027100,-1.029800,0.004100
196739008,-0.042400,-0.026000,-0.064300,-0.026800,-1.029600,0.006100
196759012,0.080300,-0.034600,0.041100,-0.028800,-1.027900,0.003700
196779007,0.141100,0.018100,0.084600,-0.027300,-1.027900,0.006800
196800536,-0.026000,0.018000,0.057800,-0.026100,-1.026900,0.003700
196819010,-0.017100,-0.017100,-0.030000,-0.027100,-1.029600,0.004900
196839009,0.026700,-0.025700,0.048900,-0.032000,-1.029300,0.003900
196859011,0.035300,0.035700,0.013600,-0.028100,-1.026900,0.003400
196879012,-0.017400,0.017900,-0.039000,-0.027600,-1.030100,0.006800
196899179,0.000200,0.000300,0.057500,-0.028800,-1.028400,0.002700
196919007,-0.026100,-0.017200,-0.021600,-0.029800,-1.030800,0.005600
196939004,0.096600,0.035400,-0.021500,-0.025900,-1.029600,0.002700
196959011,0.113500,0.017700,0.048700,-0.026300,-1.027900,0.005400
196979007,-0.053500,0.008900,0.004600,-0.030500,-1.027900,0.005100
196999182,-0.271900,0.017600,-0.074200,-0.031000,-1.027900,0.004900
197019004,-0.173900,0.026200,-0.099900,-0.025900,-1.026900,0.002200
197039007,0.203400,-0.035200,-0.029300,-0.027600,-1.030800,0.004400
197059008,0.280900,-0.017500,0.058400,-0.027600,-1.030100,0.006100
197079008,0.042900,0.035100,0.031700,-0.030200,-1.027600,0.004400
197099173,-0.377400,0.061100,0.022800,-0.031500,-1.030300,0.006600
197119012,-0.366300,0.017000,-0.143600,-0.029800,-1.028100,0.005400
197139010,0.152300,0.025600,0.006100,-0.029300,-1.029300,0.003400
197159007,0.221300,-0.000800,0.006000,-0.029800,-1.028600,0.004600
197179007,0.141200,0.069200,0.067200,-0.027800,-1.029100,0.006800
197199179,-0.017200,0.068800,0.163100,-0.027800,-1.031500,0.004900
197219004,-0.130800,0.050900,-0.126700,-0.027300,-1.028600,0.004100
197239008,0.097500,-0.028200,-0.012200,-0.025900,-1.027600,0.002000
197259008,-0.051900,-0.010500,-0.055800,-0.028100,-1.025700,0.004600
197279007,-0.156600,0.024500,-0.055500,-0.027300,-1.027100,0.004900
197299178,-0.015600,0.024400,0.058600,-0.028500,-1.026900,0.004600
197319008,0.177000,-0.019500,0.093200,-0.028800,-1.027400,0.003700
197339010,0.018400,0.041900,0.127700,-0.030000,-1.027900,0.006300
197359007,0.018300,-0.028400,-0.074400,-0.029000,-1.027900,0.006100
197379007,-0.156800,0.006800,-0.091400,-0.028300,-1.028400,0.006100
197399172,-0.050800,-0.010800,-0.117100,-0.029300,-1.024500,0.005100
197419007,0.098200,0.041800,0.006100,-0.029000,-1.031300,0.004600
197439003,0.106400,0.050300,0.067300,-0.028100,-1.030800,0.004400
197459010,-0.130500,0.076200,0.128200,-0.028100,-1.027100,0.005900
197479007,-0.339700,0.102000,-0.056400,-0.029300,-1.030300,0.003900
197499175,-0.188800,0.013900,-0.047300,-0.029500,-1.028100,0.001700
197519012,0.232300,0.013800,-0.012000,-0.026600,-1.027400,0.001200
197539012,0.283400,-0.003800,0.058100,-0.024600,-1.027400,0.009300
197559012,0.097900,-0.021300,0.057700,-0.029000,-1.029600,0.007300
197579013,-0.086500,-0.021200,-0.073900,-0.027100,-1.026600,0.005600
197599175,-0.147200,0.014000,-0.082200,-0.026800,-1.024200,0.005100
197619004,-0.181300,-0.082400,-0.090400,-0.028100,-1.028800,0.005100
197639009,-0.101400,-0.011800,-0.203600,-0.025600,-1.028100,0.006600
197659004,0.135500,-0.020500,0.007700,-0.025600,-1.030500,0.003700
197679008,0.195900,-0.002900,0.138900,-0.029000,-1.028100,0.006300
197699177,-0.041600,0.058400,0.033000,-0.027600,-1.027600,0.002200
197719004,0.072400,0.023000,0.094100,-0.028800,-1.027600,0.004400
197739009,0.037000,0.022900,0.041000,-0.031500,-1.025900,0.007100
197759005,0.054200,0.031500,0.049500,-0.029500,-1.025700,0.005400
197779006,0.167600,-0.012500,-0.003300,-0.027600,-1.026900,0.007300
197800546,0.061600,-0.038700,-0.003300,-0.025600,-1.031000,0.005600
197819009,0.017400,0.031600,-0.012100,-0.026300,-1.026400,0.007800
197839004,-0.192700,0.075100,-0.029500,-0.029800,-1.028800,0.005900
197859011,-0.261500,0.092200,-0.046800,-0.027800,-1.028800,0.005600
197879007,0.151400,0.021600,0.041000,-0.027600,-1.029100,0.003900
197899179,0.308000,-0.048500,0.075700,-0.030500,-1.028400,0.007100
197919006,0.174800,0.004300,0.022800,-0.028100,-1.029100,0.003900
197939004,-0.115000,0.013000,0.013900,-0.028300,-1.027600,0.006300
197959009,-0.359300,0.021700,-0.047500,-0.029000,-1.026900,0.004900
197979004,-0.208300,-0.057200,-0.134700,-0.030700,-1.028100,0.006800
197999181,-0.005800,-0.030600,-0.037600,-0.029800,-1.026600,0.002700
198019007,0.090500,-0.039200,-0.028600,-0.030200,-1.029600,0.003200
198039005,-0.041300,0.039800,-0.037200,-0.029000,-1.027400,0.005100
198059009,-0.128500,0.004600,-0.001900,-0.030200,-1.027100,0.007300
198079013,-0.259000,-0.013000,-0.141900,-0.031000,-1.029300,0.004600
198099179,-0.169800,-0.039100,-0.202300,-0.027100,-1.029600,0.002000
198119008,0.225000,0.022400,0.131500,-0.028500,-1.028800,0.005900
198139007,0.197300,0.039700,0.078200,-0.027100,-1.028400,0.003400
198159010,0.012300,0.092000,0.068900,-0.029000,-1.029300,0.004600
198179007,-0.215300,0.073900,0.016000,-0.028800,-1.028100,0.003900
198199178,-0.222700,0.020900,-0.080300,-0.025900,-1.027600,0.003900
198219007,-0.055000,0.012000,-0.027300,-0.028800,-1.028400,0.003900
198239012,0.120300,0.029500,-0.027200,-0.027300,-1.027900,0.002900
198259012,0.040800,0.029300,0.095500,-0.028800,-1.028400,0.002700
198279010,0.040600,-0.005900,0.033600,-0.027100,-1.029800,0.004400
198300259,-0.082200,0.011600,0.059700,-0.031000,-1.026600,0.005900
198320011,-0.177900,0.046600,-0.106900,-0.027100,-1.025200,0.003900
198340004,-0.036800,0.037500,0.051200,-0.026300,-1.028600,0.005400
198360012,0.085900,0.011000,0.015900,-0.029000,-1.030300,0.003400
198380006,0.076600,-0.006500,0.085800,-0.028800,-1.026900,0.001700
198400187,0.014900,0.002300,-0.063500,-0.027600,-1.027900,0.002400
198420012,0.041100,0.002200,-0.019300,-0.029800,-1.029800,0.005100
198440007,0.110800,0.002200,0.103300,-0.027800,-1.027100,0.003700
198460013,-0.003600,0.046000,0.015100,-0.030700,-1.027600,0.006800
198480007,0.040100,-0.024300,-0.046200,-0.028500,-1.029100,0.004400
198500178,-0.030100,0.010800,-0.037200,-0.028800,-1.027900,0.003200
198520010,-0.126200,-0.033000,-0.089400,-0.027600,-1.025700,0.003200
198540008,-0.046600,0.011000,-0.010100,-0.027100,-1.029800,0.003700
198560004,0.146200,0.019700,0.103700,-0.030500,-1.028600,0.003400
198580009,0.162700,0.063300,0.041800,-0.029000,-1.027900,0.006800
198600176,0.030500,-0.015900,-0.002200,-0.027300,-1.026600,0.002900
198620008,0.012800,0.028000,-0.072200,-0.029500,-1.028600,0.003900
198640010,0.126400,0.001600,0.050800,-0.027600,-1.026600,0.004400
198660008,0.073200,0.045300,0.085400,-0.029000,-1.031300,0.004100
198680007,0.081400,0.053800,-0.011400,-0.029000,-1.027400,0.004900
198700181,-0.032800,0.027200,0.023700,-0.029500,-1.027900,0.004900
198720004,-0.006400,0.018300,0.049800,-0.028800,-1.026400,0.003900
198740010,-0.120100,-0.051900,-0.116700,-0.030700,-1.028600,0.005400
198760012,-0.110600,-0.060300,-0.116000,-0.027100,-1.027600,0.004900
198780012,-0.162400,0.053800,0.068500,-0.027300,-1.029100,0.004100
198801535,-0.152600,0.027300,-0.045700,-0.028800,-1.028800,0.004100
198820008,-0.081600,0.027100,-0.010400,-0.030200,-1.026600,0.005100
198840011,-0.019900,-0.025600,-0.062900,-0.027800,-1.028600,0.004900
198860008,-0.019800,-0.007900,-0.027500,-0.030000,-1.026200,0.005600
198880007,-0.010900,0.018400,0.042700,-0.029000,-1.029100,0.004600
198900183,-0.002100,0.009500,0.051200,-0.031500,-1.027600,0.003700
198920004,-0.019600,0.009400,0.007100,-0.027800,-1.025900,0.006800
198940007,-0.001900,-0.016900,0.015800,-0.027300,-1.029600,0.005600
198960009,0.085600,0.000700,-0.054300,-0.028100,-1.027600,0.003700
198980008,0.076300,-0.008000,-0.062700,-0.028800,-1.026200,0.005900
199000182,-0.046700,-0.016700,-0.088500,-0.030700,-1.028400,0.003900
199020007,-0.046400,0.009600,-0.053000,-0.029300,-1.032000,0.004400
199040004,0.085200,0.035800,0.026100,-0.025900,-1.027600,0.005400
199060007,0.075900,0.000600,0.025900,-0.029000,-1.026400,0.003400
199080005,0.040400,-0.051900,0.025800,-0.029300,-1.028100,0.004100
199100175,0.005100,0.000900,0.043100,-0.027300,-1.028100,0.005100
199120009,-0.161100,0.018400,-0.062200,-0.030000,-1.027600,0.007300
199140008,0.032400,0.027100,0.025700,-0.029300,-1.028100,0.004600
199160007,0.259700,-0.008100,0.104300,-0.030700,-1.026600,0.005900
199180012,0.126800,-0.060600,0.086200,-0.028100,-1.028600,0.005100
199200174,-0.005300,-0.033900,-0.001900,-0.028800,-1.026200,0.005400
199220007,-0.206500,0.027500,-0.036900,-0.027800,-1.027600,0.008500
199240012,-0.187700,0.071100,-0.010400,-0.025600,-1.026600,0.005100
199260008,0.058500,0.018200,-0.036600,-0.029000,-1.030100,0.005100
199280012,0.145600,-0.034400,0.051200,-0.031200,-1.026200,0.004400
199300179,0.004700,0.000800,-0.071700,-0.029500,-1.029100,0.003900
199320011,-0.179100,0.079500,-0.036200,-0.028300,-1.030100,0.006600
199340012,-0.247900,0.044000,0.077800,-0.027100,-1.028400,0.005400
199360007,-0.097600,0.061200,-0.001500,-0.029800,-1.030300,0.003200
199380008,0.043000,-0.017900,0.086000,-0.026300,-1.026400,0.004900
199400183,0.025200,-0.052800,-0.002000,-0.026100,-1.028800,0.003900
199420012,0.007600,-0.035000,0.033000,-0.027300,-1.028600,0.005100
199440007,0.007500,-0.043500,0.015300,-0.030000,-1.030100,0.006100
199460009,-0.088800,0.000500,-0.028500,-0.028300,-1.030800,0.004900
199480006,-0.097000,-0.069500,-0.019600,-0.028100,-1.026600,0.006300
199500179,0.069900,-0.042800,-0.002000,-0.029000,-1.031800,0.003200
199520012,0.078200,0.001200,0.085500,-0.029500,-1.028800,0.004900
199540007,0.068900,0.027500,0.041200,-0.027600,-1.024500,0.006100
199560008,-0.001500,0.018600,0.006000,-0.027100,-1.029300,0.004400
199580005,-0.071500,0.044700,-0.037800,-0.028100,-1.026400,0.004900
199600183,-0.053500,-0.086800,-0.037600,-0.029500,-1.025700,0.003700
199620012,-0.105700,0.062500,0.015200,-0.029000,-1.027900,0.004400
199640007,-0.122500,0.009600,-0.046200,-0.027600,-1.028100,0.004100
199660012,-0.156800,0.009500,0.041600,-0.028800,-1.027900,0.006100
199680004,0.089200,-0.043100,-0.063700,-0.028800,-1.026600,0.004400
199700183,0.228700,-0.007800,0.050500,-0.026300,-1.028600,0.004900
199720010,-0.044000,0.001000,0.032700,-0.030700,-1.027900,0.004600
199740007,-0.148700,0.018500,-0.046300,-0.029800,-1.028600,0.007100
199760003,-0.086600,0.009600,-0.054700,-0.028300,-1.029300,0.003400
199780007,0.124000,-0.034200,-0.036900,-0.026100,-1.028800,0.004600
199801535,0.105700,-0.034000,-0.054200,-0.028800,-1.026900,0.004400
199820008,0.052500,0.001300,-0.027600,-0.031000,-1.029300,0.003400
199840009,-0.009000,0.027500,0.016400,-0.029500,-1.025400,0.006100
199860012,-0.070200,0.062300,-0.018800,-0.027300,-1.028600,0.004100
199880007,0.061500,0.044400,0.007600,-0.027100,-1.028400,0.005400
199900179,-0.043900,0.026700,-0.018700,-0.028500,-1.027900,0.004100
199920004,-0.174900,0.026500,-0.027300,-0.029800,-1.026200,0.005900
199940012,-0.086300,0.035100,-0.079600,-0.029000,-1.029300,0.002700
199960011,0.063000,0.026100,0.087100,-0.028100,-1.026400,0.006300
199980004,0.062600,0.008400,0.086600,-0.027600,-1.028800,0.004900
200000182,0.000900,-0.000400,-0.019000,-0.030500,-1.027600,0.007100
200020008,-0.007800,-0.026600,-0.062600,-0.026800,-1.026900,0.004900
200040004,0.001000,0.017300,-0.027200,-0.027800,-1.027400,0.002900
200060007,0.027200,-0.017800,0.069200,-0.028500,-1.027400,0.004400
200080012,0.105800,-0.070200,0.025000,-0.029500,-1.027600,0.002700
200100175,0.043900,0.009000,-0.018900,-0.026600,-1.027400,0.006100
200120012,-0.008900,-0.069800,-0.053800,-0.028800,-1.027400,0.003900
200140007,-0.000100,0.000600,-0.053400,-0.029000,-1.025400,0.006100
200160007,-0.000100,-0.025600,-0.000600,-0.028500,-1.028600,0.004600
200180008,0.034900,-0.043000,0.086900,-0.029300,-1.028600,0.002900
200200556,0.043500,-0.208900,-0.009900,-0.029500,-1.028600,0.003200
200220008,0.165700,-0.426400,0.042700,-0.027100,-1.027100,0.006300
200240012,0.068400,-0.152400,0.086200,-0.029800,-1.026400,0.006300
200260007,-0.238300,-0.029000,-0.063100,-0.027800,-1.027600,0.005400
200280004,-0.088000,-0.063800,-0.071500,-0.030200,-1.029800,0.005400
200301259,0.078800,0.032800,0.060200,-0.026100,-1.026600,0.004900
200321187,-0.061700,0.076400,0.059800,-0.028800,-1.027100,0.004900
200341012,-0.078800,0.032200,-0.080500,-0.027600,-1.025400,0.004100
200361012,-0.130800,0.032000,-0.097500,-0.027100,-1.027400,0.002900
200381012,-0.033800,0.023000,-0.009400,-0.027600,-1.029100,0.001200
200401177,-0.016100,-0.003400,0.060600,-0.027600,-1.026400,0.003200
200421007,0.089000,-0.012100,0.007700,-0.029300,-1.026400,0.003900
200441929,-0.051500,-0.029500,0.042700,-0.031200,-1.028400,0.004900
200461013,-0.059900,0.066900,-0.080100,-0.028500,-1.026600,0.004600
200481010,0.010400,-0.012300,-0.088300,-0.026100,-1.027400,0.006600
200501179,0.080400,-0.003500,-0.017800,-0.025600,-1.027100,0.002900
200521007,0.106100,-0.012200,0.061100,-0.028300,-1.026200,0.006100
200541009,-0.060800,0.031600,-0.018000,-0.031200,-1.024900,0.004100
200561003,-0.077900,-0.021100,-0.000400,-0.030200,-1.031300,0.002900
200581013,0.071300,-0.003400,-0.044200,-0.027600,-1.026600,0.005100
200601179,-0.042900,0.014100,0.069900,-0.029500,-1.027400,0.002200
200621004,-0.068900,0.014000,0.034400,-0.026600,-1.030800,0.004600
200641007,-0.033400,-0.021100,-0.009500,-0.029000,-1.026200,0.004600
200661008,-0.112000,-0.029700,0.008000,-0.027800,-1.027900,0.005600
200681004,-0.050000,0.014200,-0.044500,-0.030500,-1.025400,0.002700
200701183,0.011500,0.014200,-0.035500,-0.027600,-1.029300,0.004600
200721007,0.081500,0.005300,0.052200,-0.030000,-1.030100,0.003400
200741004,0.054700,0.014000,-0.053100,-0.028800,-1.030800,0.003900
200761010,0.010600,0.031400,0.069700,-0.029500,-1.030100,0.005600
200781007,-0.024400,0.048700,0.078000,-0.029500,-1.025900,0.006300
200802540,-0.006800,0.004700,-0.080000,-0.030000,-1.029300,0.002200
200821008,-0.076800,-0.004100,-0.027000,-0.026300,-1.026900,0.005100
200841008,0.046200,-0.039100,-0.035500,-0.026600,-1.027600,0.004900
200861004,-0.006600,-0.012600,0.043400,-0.029800,-1.028600,0.004900
200881004,0.054700,0.013800,0.025700,-0.029000,-1.029300,0.005600
200901178,-0.068100,0.022400,-0.027000,-0.028800,-1.031000,0.006800
200921004,-0.128900,0.004800,0.060700,-0.027800,-1.028800,0.002400
200941004,-0.084400,-0.004000,-0.053500,-0.027300,-1.028800,0.005100
200961009,-0.040100,0.031000,-0.061900,-0.027800,-1.029800,0.003400
200981007,0.021400,0.013300,-0.079000,-0.032400,-1.029800,0.003700
201001176,-0.040000,0.013300,0.017800,-0.026800,-1.028100,0.003900
201021007,0.100300,0.065700,0.035200,-0.027100,-1.028100,0.003900
201041004,-0.101600,0.012800,0.078700,-0.027600,-1.026400,0.004400
201061007,0.100300,-0.004800,-0.114300,-0.028800,-1.029100,0.004100
201081008,0.152200,-0.022300,0.096400,-0.031500,-1.029600,0.002000
201101177,0.151200,-0.022200,0.034600,-0.029500,-1.027100,0.005100
201121012,0.019000,0.004200,0.016800,-0.028800,-1.025900,0.005900
201141012,-0.051100,0.004200,0.060500,-0.029000,-1.027100,0.004100
201161007,-0.190800,0.004200,-0.123700,-0.027600,-1.028400,0.003900
201181004,-0.110900,0.039200,-0.114100,-0.031200,-1.028800,0.005100
201201176,0.038600,0.056400,0.000300,-0.029000,-1.028800,0.004600
201221012,-0.022900,0.047300,0.052800,-0.031200,-1.029600,0.006100
201241007,0.029700,0.012000,0.061300,-0.027800,-1.027100,0.003200
201261008,-0.005400,0.038200,-0.017900,-0.026600,-1.029300,0.005900
201281012,-0.022900,0.020400,0.069700,-0.029500,-1.027100,0.005600
201301179,0.003500,0.099100,0.104300,-0.027800,-1.029600,0.003900
201321008,-0.057800,0.072200,0.208600,-0.029000,-1.029800,0.005400
201341007,0.047600,0.028000,-0.072700,-0.031500,-1.027900,0.005600
201361012,0.091000,-0.068400,-0.089700,-0.026300,-1.027100,0.002900
201381012,0.055500,-0.024300,0.077100,-0.029300,-1.030100,0.005600
201401175,0.046400,-0.006600,0.041600,-0.028300,-1.027400,0.005400
201421008,0.002300,0.037200,0.023900,-0.032700,-1.028600,0.003900
201441008,0.011100,-0.033000,-0.011300,-0.030000,-1.027400,0.004400
201461005,0.019700,-0.041600,-0.028700,-0.027300,-1.025700,0.003700
201481012,0.124600,-0.006300,0.032700,-0.028300,-1.029100,0.004600
201501181,0.071300,0.037500,0.058800,-0.032000,-1.027900,0.004600
201521012,-0.112900,0.081000,0.040900,-0.027600,-1.027600,0.006800
201541012,-0.295900,0.045500,-0.046900,-0.027100,-1.028400,0.006300
201561012,-0.066600,0.045200,-0.072800,-0.029300,-1.025900,0.004600
201581005,0.143900,-0.016400,-0.089900,-0.029500,-1.028600,0.005600
201601177,0.090500,-0.033800,0.041900,-0.028500,-1.027400,0.004400
201621012,0.002400,0.036500,0.059200,-0.029000,-1.029100,0.006300
201641004,-0.085100,0.001200,-0.054900,-0.029000,-1.027600,0.005900
201661008,-0.093300,0.018700,0.006700,-0.028100,-1.026900,0.004900
201681008,0.117200,-0.007600,-0.002100,-0.030000,-1.029800,0.004900
201701177,0.142800,0.009900,0.146600,-0.030000,-1.028600,0.004400
201721009,0.124400,-0.060200,-0.011800,-0.025400,-1.026900,0.006600
201741010,-0.103900,0.010200,-0.055500,-0.029000,-1.027600,0.003400
201761007,-0.024500,0.018900,-0.055100,-0.031000,-1.027400,0.003400
201781009,0.106900,-0.033700,-0.063500,-0.027800,-1.027100,0.003900
201802533,0.018700,-0.016000,-0.071900,-0.030200,-1.029600,0.003200
201821005,-0.103900,0.027800,0.059800,-0.031500,-1.029100,0.004900
201841004,0.054300,-0.007300,0.015700,-0.030700,-1.029100,0.002400
201861012,0.071400,-0.016000,0.050600,-0.028300,-1.026200,0.004900
201881007,-0.147800,0.062800,-0.011000,-0.027600,-1.027600,0.006100
201901193,-0.155600,-0.007600,-0.028400,-0.027600,-1.028400,0.006600
201921007,-0.040900,-0.007500,-0.028200,-0.028500,-1.026900,0.003400
201941012,0.081900,-0.016200,-0.141800,-0.029000,-1.027100,0.004400
201961009,0.116400,0.036400,0.051600,-0.027800,-1.025200,0.004600
201981004,0.080600,0.044900,0.156300,-0.027100,-1.029800,0.004900
202001172,0.141400,0.009600,-0.002200,-0.027600,-1.028100,0.004100
202021006,0.070500,-0.007900,-0.107200,-0.027100,-1.027400,0.005600
202041012,-0.026200,0.009600,-0.089000,-0.027100,-1.027400,0.006600
202061007,-0.104800,0.035800,0.007800,-0.027100,-1.029300,0.003900
202081009,-0.104100,0.035600,0.086500,-0.027100,-1.027600,0.005400
202101181,-0.016000,0.009100,-0.027800,-0.029000,-1.027400,0.003700
202121007,0.176600,0.009000,0.016100,-0.029000,-1.027600,0.003900
202141006,0.105500,-0.017300,-0.001500,-0.030500,-1.028800,0.004900
202161008,-0.070200,0.070300,-0.036500,-0.027300,-1.027900,0.006600
202181004,-0.069700,0.043600,0.051300,-0.027100,-1.028100,0.003400
202201178,-0.060500,-0.026600,-0.019100,-0.027600,-1.031800,0.005100
202221007,0.018600,-0.026500,-0.071400,-0.029800,-1.027900,0.003400
202241007,-0.007800,-0.017500,-0.053500,-0.027800,-1.028600,0.004400
